Trial Number,TrialTypeN1S2,Nvalue,Svalue,time,KeyPressZsmallMgreater,ReactionTime,Accuracy
1,1,15,25,0.068,1,2.89,1
2,2,15,25,0.068,0,2.0657,1
3,2,15,25,0.5,1,0.70676,0
4,1,15,25,0.5,1,2.2069,1
5,1,21,90,0.068,0,2.4922,0
6,2,21,90,0.068,1,0.61382,1
7,1,18,65,0.068,1,1.3156,1
8,1,15,25,0.068,0,0.85717,0
9,2,18,65,0.068,1,0.61503,1
10,2,15,25,0.068,0,1.2404,1
11,2,18,65,0.068,1,0.78231,1
12,1,18,65,0.068,1,1.6223,1
13,2,10,35,0.5,0,0.65691,1
14,2,4,35,0.068,1,2.2992,0
15,1,10,35,0.5,0,1.115,1
16,1,4,35,0.068,0,0.76755,1
17,2,4,18,0.068,0,1.4993,1
18,1,4,18,0.068,0,2.714,1
19,1,10,25,1,1,0.76542,0
20,2,10,25,1,0,1.1722,1
21,2,7,65,1,1,0.81097,1
22,2,21,90,0.5,1,0.79236,1
23,1,7,65,1,1,9.3613,0
24,2,10,25,0.068,0,0.78687,1
25,2,7,75,1,1,0.46215,1
26,1,21,90,0.5,1,0.93881,1
27,1,10,25,0.068,0,1.1821,1
28,2,21,90,1,1,0.59617,1
29,1,7,75,1,0,0.47586,1
30,1,21,90,1,1,1.0788,1
31,2,18,75,0.5,1,0.87252,1
32,2,15,25,1,0,0.88627,1
33,2,15,35,0.068,1,1.0535,0
34,1,18,75,0.5,1,1.0144,1
35,2,4,18,1,0,0.97767,1
36,1,15,25,1,1,53.6715,1
37,2,10,65,0.068,1,1.5924,1
38,2,10,25,1,0,1.0087,1
39,1,15,35,0.068,1,1.2893,1
40,1,4,18,1,0,0.97525,1
41,1,10,65,0.068,1,0.75012,0
42,2,4,35,0.068,0,1.8886,1
43,2,18,75,0.5,1,0.89252,1
44,1,10,25,1,0,2.2449,1
45,2,4,18,1,0,1.2877,1
46,1,4,35,0.068,0,2.4013,1
47,2,21,90,0.5,1,0.74187,1
48,1,18,75,0.5,0,1.6645,0
49,1,4,18,1,0,0.90143,1
50,2,7,75,1,1,0.83191,1
51,2,4,18,0.5,0,1.0446,1
52,2,4,18,0.5,0,0.75829,1
53,1,21,90,0.5,1,0.81896,1
54,1,7,75,1,0,1.0349,1
55,2,18,90,1,1,60.3796,1
56,2,21,90,0.068,1,1.6092,1
57,2,7,75,0.5,0,1.815,0
58,2,18,75,0.068,1,1.7546,1
59,1,4,18,0.5,0,54.1666,1
60,2,10,65,1,1,1.4697,1
61,2,18,65,0.5,1,1.9248,1
62,1,4,18,0.5,0,1.6954,1
63,2,21,65,1,1,1.9346,1
64,2,15,25,0.5,0,5.1731,1
65,2,4,18,0.5,0,2.0285,1
66,2,15,90,1,1,1.3287,1
67,1,18,90,1,1,2.1144,1
68,1,21,90,0.068,0,3.0361,0
69,1,7,75,0.5,0,10.593,1
70,1,18,75,0.068,1,3.1478,1
71,1,10,65,1,0,8.9759,1
72,2,15,35,1,0,1.6359,1
73,2,21,75,0.5,1,1.3583,1
74,1,18,65,0.5,1,3.409,1
75,2,15,35,0.5,0,3.4385,1
76,1,21,65,1,1,1.8474,1
77,1,15,25,0.5,1,3.6408,1
78,2,15,25,0.5,0,4.2021,1
79,2,10,18,0.068,0,2.6034,1
80,1,4,18,0.5,0,1.4082,1
81,2,21,75,0.068,1,4.4493,1
82,2,10,65,0.5,1,4.656,1
83,1,15,90,1,1,2.7577,1
84,1,15,35,1,1,5.8899,1
85,1,21,75,0.5,1,1.1949,1
86,1,15,35,0.5,0,5.7848,0
87,1,15,25,0.5,0,1.9058,0
88,1,10,18,0.068,0,2.431,1
89,2,10,65,0.068,1,1.2668,1
90,2,4,35,0.5,0,1.9334,1
91,2,7,65,0.5,1,4.4755,1
92,1,21,75,0.068,1,1.5547,1
93,1,10,65,0.5,0,5.3718,1
94,1,10,65,0.068,0,3.9194,1
95,1,4,35,0.5,0,1.6314,1
96,2,10,18,1,0,1.3291,1
97,2,10,65,0.5,1,2.4895,1
98,2,4,18,0.068,0,1.5005,1
99,1,7,65,0.5,0,1.7589,1
100,1,10,18,1,1,6.4904,0
101,2,7,25,1,0,2.7322,1
102,2,10,35,1,1,1.8689,0
103,2,15,75,1,1,1.9197,1
104,2,10,25,0.5,0,1.3497,1
105,2,10,35,0.068,0,1.8764,1
106,1,10,65,0.5,0,2.1404,1
107,1,4,18,0.068,1,1.8164,0
108,1,7,25,1,0,3.5137,1
109,1,10,35,1,1,1.3492,0
110,2,10,25,0.068,0,4.7675,1
111,2,18,65,1,1,1.0189,1
112,1,15,75,1,0,4.1039,0
113,1,10,25,0.5,0,2.8716,1
114,2,7,25,0.5,0,4.0094,1
115,2,10,65,1,1,1.1716,1
116,1,10,35,0.068,1,4.6744,0
117,2,15,90,0.5,1,1.5033,1
118,2,21,90,0.5,1,3.3903,1
119,2,21,90,0.068,1,1.342,1
120,1,10,25,0.068,0,1.9717,1
121,2,4,35,0.068,0,1.8854,1
122,2,7,35,0.068,1,2.3211,0
123,1,18,65,1,1,1.5998,1
124,1,7,25,0.5,0,6.2239,1
125,2,7,75,0.5,1,2.1437,1
126,2,4,18,0.068,0,5.6653,1
127,2,15,75,0.068,1,1.899,1
128,2,18,90,0.068,0,5.026,0
129,1,10,65,1,1,2.5975,0
130,1,15,90,0.5,0,4.0565,0
131,2,21,90,1,1,1.2571,1
132,1,21,90,0.5,1,3.0438,1
133,1,21,90,0.068,1,1.3815,1
134,1,4,35,0.068,0,2.3495,1
135,2,7,25,0.068,0,3.107,1
136,1,7,35,0.068,0,1.7467,1
137,2,18,18,1,0,1.1609,1
138,1,7,75,0.5,1,0.97356,0
139,1,4,18,0.068,0,2.0228,1
140,2,7,75,0.068,0,3.523,0
141,2,18,75,0.068,1,1.1816,1
142,2,15,25,1,0,1.2684,1
143,1,15,75,0.068,1,2.8194,1
144,2,7,35,0.5,1,3.6653,0
145,1,18,90,0.068,1,3.4508,1
146,1,21,90,1,1,1.3602,1
147,1,7,25,0.068,0,4.7383,1
148,2,18,18,0.5,0,2.261,1
149,1,18,18,1,1,3.3867,1
150,1,7,75,0.068,0,1.9918,1
151,1,18,75,0.068,0,2.2058,0
152,1,15,25,1,1,2.734,1
153,1,7,35,0.5,1,3.3316,0
154,1,18,18,0.5,0,3.3517,0
155,1,18,18,0.068,1,2.0483,1
156,2,18,18,0.068,0,1.6653,1
157,2,21,90,1,1,0.81224,1
158,2,4,35,1,0,1.7428,1
159,2,15,25,0.068,0,2.0823,1
160,1,21,90,1,1,1.5494,1
161,1,4,35,1,0,1.0309,1
162,1,15,25,0.068,1,1.0658,1
163,1,4,35,0.5,0,0.68104,1
164,1,7,18,1,1,1.7322,0
165,2,4,35,0.5,1,0.82591,0
166,2,7,18,1,0,1.0005,1
167,1,4,18,1,0,1.0358,1
168,1,15,25,1,1,1.0189,1
169,1,10,18,0.5,1,2.8282,0
170,2,4,18,1,0,1.0479,1
171,2,15,25,1,1,1.1645,0
172,2,10,18,0.5,0,0.89671,1
173,2,18,90,0.5,1,0.64859,1
174,2,18,65,1,1,0.68042,1
175,1,18,90,0.5,1,0.77423,1
176,1,18,65,1,1,0.73618,1
177,1,4,35,1,0,0.56872,1
178,2,4,35,1,0,1.0611,1
179,2,7,65,0.068,1,0.85194,1
180,2,18,75,1,1,0.62162,1
181,2,15,75,0.5,0,1.4773,0
182,2,15,90,0.068,1,0.816,1
183,1,7,65,0.068,0,0.85652,1
184,2,21,75,1,1,0.6761,1
185,1,18,75,1,0,0.65323,0
186,2,21,90,1,1,1.0698,1
187,1,15,75,0.5,1,1.6802,1
188,2,21,90,0.5,1,1.6503,1
189,2,18,65,0.5,1,1.4304,1
190,1,15,90,0.068,0,1.1742,0
191,1,21,75,1,1,2.2333,1
192,1,21,90,1,1,0.99802,1
193,1,21,90,0.5,1,0.74291,1
194,1,18,65,0.5,1,1.3571,1
195,2,4,35,0.5,0,0.80399,1
196,1,4,35,0.5,0,2.3809,1
197,1,7,18,0.5,1,0.94639,0
198,2,7,18,0.5,0,0.84534,1
199,2,7,18,0.068,0,1.3208,1
200,1,7,18,0.068,0,1.7026,1
201,2,7,75,0.068,1,4.7846,1
202,1,7,75,0.068,1,1.0066,0
203,2,21,90,0.068,1,0.9699,1
204,2,21,65,0.068,0,116.4569,0
205,1,21,90,0.068,1,4.8671,1
206,1,21,65,0.068,1,1.1988,1
207,2,7,35,1,0,4.6135,1
208,1,7,35,1,1,4.029,0
209,2,18,75,1,1,1.7349,1
210,2,21,65,0.5,1,1.7764,1
211,1,18,75,1,1,0.36787,1
212,2,4,35,1,0,1.2745,1
213,1,21,65,0.5,1,80.2243,1
214,2,10,25,0.5,0,2.4415,1
215,1,4,35,1,0,1.3612,1
216,1,10,25,0.5,1,1.7313,0
