Trial Number,TrialTypeN1S2,Nvalue,Svalue,time,KeyPressZsmallMgreater,ReactionTime,Accuracy
1,2,10,90,0.5,1,1.3889,1
2,2,15,18,0.068,1,3.7783,0
3,1,10,90,0.5,0,1.9608,1
4,1,15,18,0.068,1,1.0783,1
5,2,4,25,0.068,0,0.86607,1
6,1,4,25,0.068,0,0.72113,1
7,2,7,75,0.068,1,0.86349,1
8,1,7,75,0.068,0,0.17933,1
9,1,10,65,1,1,0.37459,0
10,1,7,25,0.5,0,0.078968,1
11,2,10,65,1,1,0.92657,1
12,2,7,25,0.5,0,0.77261,1
13,2,7,90,0.068,1,1.3233,1
14,2,7,75,0.5,1,6.0506,1
15,1,7,90,0.068,0,8.7095,1
16,1,7,75,0.5,0,1.1463,1
17,1,21,35,0.5,1,0.40667,1
18,1,7,25,0.068,0,1.3886,1
19,2,21,35,0.5,1,1.4308,0
20,1,21,75,1,0,0.90668,0
21,2,7,25,0.068,0,0.95309,1
22,1,10,35,1,1,1.3546,0
23,2,21,75,1,1,11.9097,1
24,1,4,65,1,0,0.96988,1
25,1,10,90,1,1,0.78227,0
26,2,10,35,1,0,1.1198,1
27,2,4,65,1,0,1.1678,0
28,1,18,65,0.068,1,0.22476,1
29,1,4,25,0.5,1,0.54417,0
30,1,4,25,0.068,0,0.70869,1
31,1,21,18,0.5,1,0.58813,1
32,2,10,90,1,1,0.79736,1
33,2,18,65,0.068,1,6.4573,1
34,1,15,25,1,1,3.4772,1
35,2,4,25,0.5,0,2.2682,1
36,1,15,25,0.068,0,2.1354,0
37,2,4,25,0.068,1,1.6366,0
38,2,21,18,0.5,0,0.78646,1
39,2,15,25,1,1,1.0498,0
40,1,4,25,1,0,0.81137,1
41,1,10,18,0.5,1,0.88747,0
42,1,15,35,0.068,1,0.98754,1
43,1,21,18,1,1,0.83702,1
44,1,18,90,1,1,2.2751,1
45,1,10,90,0.068,0,5.1026,1
46,2,15,25,0.068,1,1.4085,0
47,2,4,25,1,0,0.0035038,1
48,2,10,18,0.5,0,1.2355,1
49,1,18,75,0.068,1,0.92598,1
50,1,10,65,1,1,0.81117,0
51,2,15,35,0.068,0,1.2563,1
52,2,21,18,1,0,0.74423,1
53,1,18,65,0.5,1,0.67205,1
54,1,4,90,0.068,0,1.2656,1
55,2,18,90,1,1,0.96694,1
56,2,10,90,0.068,1,1.2727,1
57,2,18,75,0.068,1,1.4086,1
58,2,10,65,1,0,0.72071,0
59,1,10,90,0.068,1,0.81718,0
60,1,18,35,1,1,0.90113,1
61,2,18,65,0.5,1,0.69877,1
62,1,15,90,0.068,1,0.63299,1
63,2,4,90,0.068,0,1.5695,0
64,2,10,90,0.068,1,0.62609,1
65,1,10,90,1,1,1.0477,0
66,1,4,25,1,0,1.4583,1
67,2,18,35,1,1,1.2001,0
68,1,4,90,0.5,0,0.8429,1
69,2,15,90,0.068,1,0.59781,1
70,1,15,75,0.068,1,0.90684,1
71,2,10,90,1,0,0.8714,0
72,1,15,35,1,1,0.54938,1
73,2,4,25,1,0,0.40797,1
74,2,4,90,0.5,0,1.2306,0
75,2,15,75,0.068,1,0.52386,1
76,1,15,25,1,0,0.0028507,0
77,1,10,35,0.5,1,0.5576,0
78,1,7,25,1,0,0.89967,1
79,1,7,35,1,0,1.1423,1
80,1,7,35,0.068,0,0.81946,1
81,2,15,35,1,1,0.33669,0
82,2,15,25,1,0,0.1963,1
83,2,10,35,0.5,1,18.787,0
84,1,21,75,0.068,1,1.0963,1
85,1,18,75,1,1,0.38828,1
86,1,7,35,1,0,0.31498,1
87,1,21,18,0.068,1,0.65205,1
88,1,15,90,1,1,0.83635,1
89,2,7,25,1,0,0.51416,1
90,1,15,25,0.5,1,0.47954,1
91,2,7,35,1,0,0.5945,1
92,1,10,18,0.068,1,2.1722,0
93,1,21,75,0.5,1,0.81061,1
94,2,7,35,0.068,0,0.59886,1
95,1,4,65,0.068,1,0.79069,0
96,2,21,75,0.068,1,0.60629,1
97,2,18,75,1,1,0.0035325,1
98,1,10,90,0.5,0,1.1813,1
99,2,7,35,1,1,0.0031754,0
100,1,7,25,0.5,0,0.99225,1
101,2,21,18,0.068,0,0.97122,1
102,1,18,65,1,1,0.97075,1
103,1,18,65,0.5,1,0.7718,1
104,1,21,75,0.068,0,4.5279,0
105,2,15,90,1,1,1.0561,1
106,2,15,25,0.5,0,0.87079,1
107,1,15,75,0.5,1,0.73155,1
108,1,4,65,0.5,0,1,1
109,2,10,18,0.068,0,0.61382,1
110,2,21,75,0.5,1,0.71801,1
111,1,21,18,1,1,1.2066,1
112,1,21,18,0.5,1,0.7498,1
113,1,15,25,0.068,0,0.71875,0
114,2,4,65,0.068,1,1.3927,1
115,2,10,90,0.5,1,0.48297,1
116,2,7,25,0.5,0,0.49886,1
117,1,7,25,1,0,1.6315,1
118,2,18,65,1,1,0.65649,1
119,1,15,75,1,1,1.0938,1
120,1,18,65,0.068,0,0.78006,0
121,2,18,65,0.5,1,0.81337,1
122,1,18,90,0.5,1,1.1428,1
123,2,21,75,0.068,1,1.1432,1
124,1,18,18,0.5,0,0.48875,0
125,2,15,75,0.5,1,0.59218,1
126,2,4,65,0.5,0,0.36627,0
127,2,21,18,1,0,0.50963,1
128,2,21,18,0.5,1,1.363,0
129,1,7,25,0.068,0,0.59779,1
130,2,15,25,0.068,1,0.82161,0
131,2,7,25,1,0,0.33354,1
132,1,7,35,0.5,0,0.78071,1
133,1,15,35,0.5,1,0.92768,1
134,1,21,18,0.068,1,2.0042,1
135,1,7,90,1,0,1.2574,1
136,1,21,18,0.5,1,0.49861,1
137,2,15,75,1,1,0.80526,1
138,2,18,65,0.068,0,0.080047,0
139,1,15,18,0.5,1,0.52388,1
140,1,7,90,0.5,0,0.73168,1
141,1,4,75,0.068,0,0.62777,1
142,2,18,90,0.5,1,0.46216,1
143,2,18,18,0.5,0,0.8467,1
144,2,7,25,0.068,0,0.60693,1
145,1,7,75,1,0,0.89996,1
146,1,4,65,0.068,1,5.7281,0
147,1,21,18,1,1,0.72088,1
148,1,4,75,1,0,0.56369,1
149,1,7,35,0.5,1,1.6403,0
150,1,21,35,0.068,1,0.84987,1
151,2,7,35,0.5,0,1.395,1
152,1,10,65,0.5,1,1.1657,0
153,2,15,35,0.5,0,1.1282,1
154,1,21,18,0.068,1,1.0464,1
155,1,15,90,0.5,1,1.0943,1
156,1,18,18,0.068,1,0.76102,1
157,2,21,18,0.068,0,1.583,1
158,1,4,65,1,0,1.0202,1
159,2,7,90,1,1,1.0511,1
160,1,10,35,0.068,0,0.99155,1
161,1,10,65,0.068,1,9.5489,0
162,2,21,18,0.5,0,7.5384,1
163,1,18,75,0.5,1,2.5591,1
164,2,15,18,0.5,0,0.96659,1
165,2,7,90,0.5,1,6.609,1
166,2,4,75,0.068,0,3.3162,0
167,1,4,75,0.5,0,1.2404,1
168,2,7,75,1,1,6.1968,1
169,2,4,65,0.068,0,3.7652,0
170,1,4,65,0.5,0,8.1146,1
171,2,21,18,1,0,1.8836,1
172,1,18,35,0.5,1,0.86896,1
173,2,4,75,1,0,1.6936,0
174,2,7,35,0.5,0,0.97038,1
175,2,21,35,0.068,0,0.70477,1
176,2,10,65,0.5,1,1.3071,1
177,2,21,18,0.068,0,1.0013,1
178,2,15,90,0.5,1,1.2315,1
179,2,18,18,0.068,0,0.83731,1
180,2,4,65,1,0,1.2728,0
181,2,10,35,0.068,0,0.64636,1
182,1,21,35,1,1,3.9326,1
183,2,10,65,0.068,1,0.80925,1
184,2,18,75,0.5,1,0.76049,1
185,2,4,75,0.5,0,0.77792,0
186,2,4,65,0.5,0,0.61048,0
187,2,18,35,0.5,1,1.2486,0
188,2,21,35,1,1,1.2652,0
189,2,4,90,1,0,1.7067,0
190,1,4,90,1,0,1.2439,1
191,1,18,65,1,1,0.37669,1
192,2,18,65,1,1,0.091351,1
193,1,10,65,0.5,0,0.58962,1
194,1,21,75,1,1,0.37277,1
195,1,10,18,1,1,0.64729,0
196,1,15,25,0.5,0,0.46316,0
197,2,10,65,0.5,1,0.53594,1
198,2,21,75,1,1,0.48918,1
199,1,15,18,1,0,0.39294,0
200,1,7,35,0.068,1,7.9317,0
201,2,10,18,1,1,3.1063,0
202,1,10,65,0.068,1,3.299,0
203,2,15,25,0.5,0,4.5452,1
204,2,15,18,1,0,0.73657,1
205,1,18,18,1,1,1.0575,1
206,2,7,35,0.068,1,0.79565,0
207,2,10,65,0.068,0,8.1687,0
208,2,18,18,1,1,0.13328,0
209,1,4,25,0.5,0,0.7823,1
210,1,18,35,0.068,1,6.325,1
211,2,4,25,0.5,0,5.8946,1
212,1,21,75,0.5,1,1.1283,1
213,2,18,35,0.068,0,4.3467,1
214,2,21,75,0.5,1,1.481,1
215,2,18,90,0.068,1,1.2672,1
216,1,18,90,0.068,1,0.99722,1
