Trial Number,TrialTypeN1S2,Nvalue,Svalue,time,KeyPressZsmallMgreater,ReactionTime,Accuracy
1,2,10,65,0.068,0,2.5866,0
2,1,10,65,0.068,0,1.3268,1
3,2,18,75,0.5,1,0.82964,1
4,2,15,75,1,1,1.1452,1
5,1,18,75,0.5,0,3.0755,0
6,1,15,75,1,0,1.1455,0
7,2,7,25,0.5,0,1.09,1
8,2,7,65,0.5,1,0.82901,1
9,1,7,25,0.5,0,1.0992,1
10,2,18,75,0.068,1,0.75357,1
11,1,7,65,0.5,0,1.0162,1
12,2,21,18,0.068,0,0.64969,1
13,1,18,75,0.068,0,0.77458,0
14,1,21,18,0.068,1,1.1187,1
15,1,15,25,0.5,0,0.85501,0
16,2,15,25,0.5,0,0.9831,1
17,1,4,90,1,0,0.80096,1
18,2,4,90,1,1,0.63437,1
19,2,7,65,0.068,1,0.9554,1
20,2,4,90,0.5,1,0.96507,1
21,2,10,65,0.5,1,1.9228,1
22,1,7,65,0.068,0,1.0446,1
23,2,18,18,0.068,0,1.5492,1
24,2,15,35,1,0,1.315,1
25,2,18,18,0.068,0,0.91858,1
26,1,4,90,0.5,1,2.438,0
27,2,21,90,1,1,0.78683,1
28,1,10,65,0.5,1,0.89886,0
29,2,4,75,0.5,0,0.31162,0
30,1,18,18,0.068,0,1.2634,0
31,1,15,35,1,1,3.4383,1
32,2,21,18,1,1,1.034,0
33,2,10,75,0.068,1,1.1265,1
34,2,10,65,0.068,1,1.295,1
35,2,4,75,0.068,1,1.2995,1
36,2,18,25,0.5,0,1.3443,1
37,2,18,25,1,0,0.69072,1
38,1,18,18,0.068,1,1.6916,1
39,1,21,90,1,1,1.8289,1
40,2,4,75,0.068,1,1.1478,1
41,1,4,75,0.5,0,1.2017,1
42,1,21,18,1,0,0.68253,0
43,1,10,75,0.068,1,0.78667,0
44,2,18,75,1,1,1.1474,1
45,1,10,65,0.068,0,1.1243,1
46,1,4,75,0.068,0,1.3474,1
47,1,18,25,0.5,1,0.97488,1
48,1,18,25,1,0,2.1927,0
49,1,4,75,0.068,0,0.89682,1
50,1,18,75,1,1,0.94818,1
51,2,4,35,0.5,1,1.3523,0
52,1,4,35,0.5,0,0.92413,1
53,2,18,25,0.5,0,1.2771,1
54,2,18,25,0.068,0,2.7562,1
55,2,21,18,1,0,1.1676,1
56,2,4,35,1,0,1.3514,1
57,1,18,25,0.5,1,2.1431,1
58,2,21,18,0.068,0,0.86207,1
59,2,21,25,1,0,2.0625,1
60,1,18,25,0.068,0,1.1297,0
61,2,7,35,0.068,1,1.3025,0
62,2,18,18,1,0,1.0995,1
63,2,18,25,0.5,0,1.1879,1
64,1,21,18,1,0,1.4651,0
65,1,4,35,1,0,0.79034,1
66,2,15,35,1,0,1.4976,1
67,2,10,65,0.5,0,0.98243,0
68,1,21,18,0.068,0,2.6963,0
69,2,21,18,0.5,0,1.3941,1
70,1,21,25,1,1,1.228,1
71,2,18,25,1,0,0.74254,1
72,1,7,35,0.068,1,0.69153,0
73,2,15,75,0.5,1,0.86187,1
74,2,7,65,0.5,1,0.74276,1
75,1,18,18,1,1,0.7705,1
76,2,4,18,1,0,1.1117,1
77,2,15,75,0.5,1,0.66349,1
78,1,18,25,0.5,1,1.0301,1
79,1,15,35,1,1,0.99927,1
80,1,10,65,0.5,0,1.2748,1
81,1,21,18,0.5,1,1.7138,1
82,2,4,90,0.068,1,0.77711,1
83,2,15,65,0.5,1,1.3247,1
84,1,18,25,1,1,0.51736,1
85,2,4,75,0.5,1,0.65063,1
86,2,18,25,0.068,0,1.1462,1
87,2,7,90,0.068,1,0.68575,1
88,2,10,65,0.068,1,0.69562,1
89,1,15,75,0.5,0,0.8479,0
90,2,7,90,0.5,1,0.72203,1
91,2,21,35,0.068,1,5.053,0
92,1,7,65,0.5,0,0.8122,1
93,1,4,18,1,0,0.99895,1
94,1,15,75,0.5,1,1.0187,1
95,2,18,18,1,1,1.2325,0
96,1,4,90,0.068,0,0.80972,1
97,2,18,25,1,1,0.071724,0
98,2,7,65,0.068,1,0.68716,1
99,2,10,75,0.5,1,0.66695,1
100,1,15,65,0.5,1,0.5444,1
101,1,4,75,0.5,1,0.67547,0
102,2,15,35,0.068,1,1.1679,0
103,1,18,25,0.068,0,0.67538,0
104,1,7,90,0.068,1,0.61208,0
105,2,21,35,1,0,1.4275,1
106,1,10,65,0.068,0,1.1837,1
107,2,4,35,0.068,0,1.8565,1
108,2,4,75,1,0,0.91385,0
109,1,7,90,0.5,0,0.70259,1
110,1,21,35,0.068,1,1.0021,1
111,2,10,90,0.5,1,0.52183,1
112,1,18,18,1,1,1.395,1
113,1,18,25,1,1,1.2427,1
114,2,15,75,0.068,1,0.71741,1
115,1,7,65,0.068,0,0.98474,1
116,2,15,35,0.068,0,1.6863,1
117,2,7,90,0.5,1,0.48819,1
118,1,10,75,0.5,0,1.0425,1
119,1,15,35,0.068,1,0.95558,1
120,1,21,35,1,0,0.63064,0
121,1,4,35,0.068,0,1.7841,1
122,1,4,75,1,0,0.40189,1
123,1,10,90,0.5,0,0.72014,1
124,2,10,75,1,1,0.75521,1
125,1,15,75,0.068,0,2.0376,0
126,2,21,18,0.5,0,0.83608,1
127,1,15,35,0.068,0,0.67026,0
128,1,7,90,0.5,1,0.88292,0
129,1,10,75,1,0,1.416,1
130,2,21,35,0.5,0,0.97168,1
131,1,21,18,0.5,0,1.5094,0
132,1,21,35,0.5,1,3.1617,1
133,1,7,25,0.068,0,0.76934,1
134,1,4,90,0.5,0,1.248,1
135,2,7,25,0.068,0,0.94307,1
136,2,4,90,0.5,1,1.046,1
137,1,15,65,1,1,1.3613,1
138,2,15,65,1,0,1.6706,0
139,2,4,18,0.068,0,0.7498,1
140,1,4,18,0.068,0,1.8133,1
141,2,10,90,0.068,1,0.81692,1
142,1,10,90,0.068,0,1.3865,1
143,1,7,25,1,0,0.42873,1
144,1,7,65,1,0,0.63267,1
145,1,15,75,0.068,0,1.8182,0
146,2,7,25,1,0,0.001875,1
147,1,21,25,0.068,0,1.0551,0
148,2,7,65,1,1,1.1744,1
149,1,21,18,0.068,1,1.7577,1
150,1,7,35,0.5,0,1.0906,1
151,2,15,75,0.068,1,1.4724,1
152,2,21,25,0.068,0,1.4873,1
153,2,21,18,0.068,0,7.5236,1
154,2,7,35,0.5,0,1.0026,1
155,2,10,35,0.068,0,1.7578,1
156,2,10,65,1,1,1.1057,1
157,1,10,35,0.068,0,2.3415,1
158,1,10,65,1,0,1.8954,1
159,2,7,65,1,1,0.79239,1
160,2,7,90,1,1,0.60311,1
161,2,10,65,1,1,1.1945,1
162,1,7,65,1,1,1.0304,0
163,2,18,18,0.5,0,1.905,1
164,1,7,90,1,0,1.4592,1
165,2,18,25,0.068,0,1.1424,1
166,2,4,75,1,1,1.0729,1
167,2,15,65,0.068,1,1.9871,1
168,2,15,25,0.068,0,1.6523,1
169,1,10,65,1,0,3.0223,1
170,2,10,65,0.5,1,1.0262,1
171,1,18,18,0.5,0,0.88334,0
172,2,10,65,1,1,1.4963,1
173,1,18,25,0.068,0,1.386,0
174,1,4,75,1,0,0.86222,1
175,1,15,65,0.068,0,2.4721,0
176,1,15,25,0.068,0,1.8048,0
177,1,10,65,0.5,0,1.1069,1
178,1,10,65,1,0,1.0572,1
179,2,18,18,0.5,0,1.2249,1
180,2,21,90,0.5,1,1.0015,1
181,1,18,18,0.5,0,0.90902,0
182,1,21,90,0.5,1,5.0249,1
183,2,4,90,1,1,1.4244,1
184,2,10,90,1,1,1.2582,1
185,1,4,90,1,0,1.199,1
186,2,21,18,0.5,0,1.0351,1
187,2,10,35,1,0,1.0082,1
188,2,15,25,1,0,0.83516,1
189,1,10,90,1,0,1.4072,1
190,1,21,18,0.5,1,2.0137,1
191,1,10,35,1,0,1.3514,1
192,2,7,35,1,0,1.8398,1
193,1,15,25,1,0,2.255,0
194,2,15,35,0.5,0,1.1986,1
195,1,7,35,1,0,0.97647,1
196,1,15,35,0.5,1,1.8306,1
197,2,7,90,0.068,1,2.0993,1
198,1,7,90,0.068,1,1.0958,0
199,1,4,90,0.068,0,1.3688,1
200,1,21,25,0.5,0,0.9591,0
201,2,4,90,0.068,1,1.0484,1
202,1,21,90,0.068,0,1.026,0
203,2,21,25,0.5,0,1.7701,1
204,2,21,90,0.068,0,5.3495,0
205,2,21,18,1,0,0.64855,1
206,2,7,90,1,1,0.66442,1
207,1,21,18,1,1,1.1637,1
208,2,4,18,0.5,0,0.68349,1
209,1,7,90,1,0,0.96541,1
210,1,4,18,0.5,0,2.3714,1
211,1,10,35,0.5,0,2.0831,1
212,2,10,35,0.5,0,1.9533,1
213,1,15,75,1,0,2.9671,0
214,2,15,75,1,1,1.7891,1
215,2,15,35,0.5,0,1.8882,1
216,1,15,35,0.5,0,5.9634,0
