Trial Number,TrialTypeN1S2,Nvalue,Svalue,time,KeyPressZsmallMgreater,ReactionTime,Accuracy
1,2,4,75,1,1,0.6731,1
2,2,18,35,0.068,0,0.97175,1
3,1,4,75,1,0,2.5468,1
4,2,18,35,1,1,1.5006,0
5,1,18,35,0.068,1,0.90472,1
6,1,18,35,1,1,0.43941,1
7,2,4,90,0.5,1,0.73387,1
8,1,4,90,0.5,0,1.9783,1
9,2,7,65,0.068,1,0.75101,1
10,2,15,75,0.5,1,0.83892,1
11,1,7,65,0.068,1,1.0909,0
12,1,15,75,0.5,1,0.58162,1
13,2,21,25,0.068,0,0.50615,1
14,2,7,25,1,0,0.5837,1
15,1,21,25,0.068,1,0.85763,1
16,1,7,25,1,1,2.1848,0
17,1,10,90,0.5,1,1.5745,0
18,1,7,25,1,1,1.5944,0
19,2,10,90,0.5,1,0.70823,1
20,2,7,25,1,1,2.8589,0
21,2,4,35,0.068,0,1.4848,1
22,2,21,18,0.068,0,1.5126,1
23,1,4,35,0.068,0,1.0869,1
24,1,21,18,0.068,1,0.72679,1
25,1,4,18,0.068,1,2.5385,0
26,2,4,18,0.068,0,0.62276,1
27,1,10,35,0.5,1,0.98706,0
28,2,10,35,0.5,0,1.0942,1
29,2,7,90,1,1,1.2649,1
30,1,7,90,1,0,2.0362,1
31,1,15,75,0.5,0,1.049,0
32,2,15,75,0.5,1,1.6101,1
33,1,7,18,1,1,0.84335,0
34,1,10,90,1,0,2.9769,1
35,1,21,65,0.5,1,1.3709,1
36,2,7,18,1,0,2.6134,1
37,1,15,75,0.068,1,0.9632,1
38,1,21,90,0.068,1,1.6186,1
39,2,10,90,1,1,0.90269,1
40,2,21,65,0.5,1,1.1039,1
41,2,15,75,0.068,1,0.78002,1
42,2,21,90,0.068,1,0.56901,1
43,1,15,75,0.068,1,1.1663,1
44,2,15,75,0.068,1,0.51987,1
45,1,15,75,0.5,1,0.85184,1
46,1,10,65,0.5,1,0.81738,0
47,1,18,25,0.068,1,0.48231,1
48,1,10,90,0.068,1,0.46892,0
49,2,15,75,0.5,1,0.59009,1
50,2,10,65,0.5,0,1.0303,0
51,2,18,25,0.068,0,0.91046,1
52,2,10,90,0.068,1,0.85502,1
53,2,4,18,1,0,0.50454,1
54,2,21,90,0.5,1,0.4195,1
55,2,21,65,1,1,0.91257,1
56,1,4,18,1,0,0.28933,1
57,1,21,90,0.5,1,0.76833,1
58,1,21,65,1,1,0.34272,1
59,2,10,35,0.068,0,1.0255,1
60,2,15,90,1,1,0.31282,1
61,1,10,35,0.068,0,0.78085,1
62,2,10,25,1,0,0.78487,1
63,2,18,25,0.5,0,0.65838,1
64,2,7,90,0.5,1,0.58061,1
65,1,15,90,1,1,0.81472,1
66,2,4,35,0.5,0,0.59148,1
67,2,7,25,0.5,0,0.31106,1
68,2,7,25,0.068,0,0.54549,1
69,2,4,90,1,1,0.57704,1
70,1,10,25,1,1,0.73187,0
71,1,18,25,0.5,1,0.45006,1
72,1,7,90,0.5,1,1.1889,0
73,1,4,35,0.5,0,0.36447,1
74,2,7,25,0.068,0,0.83414,1
75,1,7,25,0.5,0,0.40731,1
76,2,18,65,0.068,1,0.64424,1
77,1,7,25,0.068,1,0.95003,0
78,2,15,90,1,1,0.29429,1
79,1,4,90,1,0,0.73111,1
80,1,7,25,0.068,1,0.53953,0
81,2,10,35,0.068,0,0.73283,1
82,2,10,65,1,0,0.65465,0
83,2,7,18,0.068,0,0.62012,1
84,2,18,65,1,1,0.95544,1
85,1,18,65,0.068,1,1.5856,1
86,1,15,90,1,1,0.82616,1
87,1,10,35,0.068,1,0.60663,0
88,1,10,65,1,0,0.52599,1
89,1,7,18,0.068,0,0.67364,1
90,1,18,65,1,1,0.8934,1
91,2,7,18,0.5,0,0.85884,1
92,1,7,18,0.5,1,0.63475,0
93,1,18,35,0.5,1,0.47126,1
94,1,15,75,1,1,0.77282,1
95,1,18,18,0.068,1,0.44105,1
96,1,7,90,0.068,1,0.44052,0
97,1,18,18,0.5,1,0.32508,1
98,2,18,35,0.5,0,0.49317,1
99,1,21,18,0.5,1,0.39586,1
100,2,15,75,1,1,0.24726,1
101,2,18,18,0.068,0,0.74807,1
102,2,7,90,0.068,1,0.88779,1
103,2,18,18,0.5,0,0.78214,1
104,1,4,75,0.5,0,0.74847,1
105,1,7,25,1,0,0.31054,1
106,1,15,90,0.5,0,1.0712,0
107,1,7,25,0.5,0,0.38295,1
108,1,18,18,1,1,0.3091,1
109,1,18,18,1,1,0.31341,1
110,2,21,18,0.5,0,0.4222,1
111,2,4,75,0.5,0,0.46699,0
112,1,21,25,0.5,1,0.68113,1
113,2,7,25,1,0,0.7583,1
114,2,15,90,0.5,1,0.64291,1
115,1,7,25,0.5,0,0.64415,1
116,2,7,25,0.5,0,0.59652,1
117,2,18,18,1,0,0.81879,1
118,2,18,18,1,0,0.53781,1
119,2,21,25,0.5,0,1.0856,1
120,2,7,25,0.5,0,0.50999,1
121,1,18,18,0.5,1,1.341,1
122,1,21,65,1,1,0.93877,1
123,1,21,25,1,1,0.66694,1
124,1,18,75,0.5,1,0.46234,1
125,2,18,18,0.5,0,0.53036,1
126,1,15,18,1,1,0.75113,1
127,2,21,65,1,1,0.41196,1
128,1,21,65,0.068,1,0.8262,1
129,1,7,65,1,1,0.43372,0
130,2,21,25,1,0,0.45546,1
131,2,18,75,0.5,1,0.48684,1
132,1,10,25,0.068,1,0.62253,0
133,2,15,18,1,0,0.48545,1
134,2,21,65,0.068,1,0.81342,1
135,2,7,65,1,1,0.80244,1
136,2,10,25,0.068,1,0.65018,0
137,1,4,35,0.5,0,0.33077,1
138,1,15,18,0.068,1,0.67457,1
139,2,4,35,0.5,0,0.46206,1
140,2,15,18,0.068,1,0.61886,0
141,2,4,18,0.5,0,0.64594,1
142,2,18,75,0.068,1,0.82355,1
143,1,4,18,0.5,0,0.58747,1
144,1,18,75,0.068,1,1.0131,1
145,2,10,75,0.5,1,0.6902,1
146,2,15,90,0.5,1,0.37613,1
147,1,10,75,0.5,1,0.40102,0
148,2,18,18,0.068,1,1.2915,0
149,2,10,75,1,1,0.38633,1
150,1,15,90,0.5,1,0.96375,1
151,2,21,65,0.5,1,0.6103,1
152,1,18,18,0.068,0,0.41892,0
153,1,10,75,1,1,0.6383,0
154,1,21,65,0.5,1,0.75994,1
155,1,4,35,1,0,0.62251,1
156,2,4,35,1,0,0.46005,1
157,1,10,65,0.068,1,0.80125,0
158,1,15,90,0.068,1,0.74497,1
159,1,4,90,0.068,1,0.55574,0
160,2,10,65,0.068,0,0.65904,0
161,2,15,90,0.068,1,0.6495,1
162,1,21,18,1,1,0.43636,1
163,2,4,90,0.068,1,1.0911,1
164,2,21,18,1,0,0.68395,1
165,1,15,75,0.068,1,0.90188,1
166,2,15,75,0.068,1,0.62802,1
167,2,10,75,0.068,1,0.85596,1
168,1,10,75,0.068,1,1.131,0
169,2,10,35,0.5,0,0.84605,1
170,2,15,75,1,1,0.39956,1
171,2,4,35,0.068,0,0.7464,1
172,1,10,35,0.5,0,0.87445,1
173,2,18,75,1,1,0.5825,1
174,2,21,65,0.068,1,0.68655,1
175,1,15,75,1,1,1.0095,1
176,1,4,35,0.068,0,0.48892,1
177,2,21,65,1,1,0.75165,1
178,1,18,75,1,1,0.76852,1
179,2,4,35,1,0,0.28223,1
180,1,21,65,0.068,1,0.64301,1
181,2,21,90,1,1,0.31183,1
182,2,21,65,0.5,1,0.27193,1
183,1,21,65,1,1,0.45598,1
184,2,4,35,0.068,0,0.60492,1
185,2,15,75,1,1,0.60094,1
186,1,4,35,1,0,0.3905,1
187,2,10,25,0.5,0,0.86939,1
188,1,21,90,1,1,0.2825,1
189,2,4,35,1,0,0.37461,1
190,2,7,65,0.5,1,1.1367,1
191,2,15,18,0.5,0,0.41003,1
192,1,21,65,0.5,1,0.82945,1
193,1,4,35,0.068,0,0.75898,1
194,1,15,75,1,1,0.23234,1
195,2,10,35,1,0,0.65741,1
196,1,10,25,0.5,0,0.90892,1
197,1,4,35,1,0,1.4445,1
198,1,7,65,0.5,1,0.85074,0
199,2,4,35,0.5,0,0.61834,1
200,2,18,25,1,0,0.47111,1
201,2,4,75,0.068,1,0.9092,1
202,1,15,18,0.5,1,0.41802,1
203,1,10,35,1,1,0.86874,0
204,2,21,65,0.068,1,0.56773,1
205,1,4,35,0.5,0,0.65275,1
206,2,15,90,0.068,1,0.6033,1
207,2,18,65,0.5,0,0.78313,0
208,1,18,25,1,1,0.31777,1
209,2,10,35,1,0,1.1151,1
210,1,4,75,0.068,1,0.68606,0
211,1,21,65,0.068,1,0.87209,1
212,1,15,90,0.068,1,0.96057,1
213,1,18,65,0.5,1,0.46607,1
214,1,10,35,1,1,0.68995,0
215,1,7,25,0.068,1,0.71427,0
216,2,7,25,0.068,0,0.49888,1
