Trial Number,TrialTypeN1S2,Nvalue,Svalue,time,KeyPressZsmallMgreater,ReactionTime,Accuracy
1,1,18,75,0.068,0,0.30415,0
2,2,18,75,0.068,1,0.43881,1
3,1,15,18,1,0,1.3118,0
4,2,15,18,1,0,0.56791,1
5,2,4,35,0.5,0,0.95523,1
6,1,4,35,0.5,0,0.15188,1
7,2,10,90,1,0,0.25024,0
8,2,15,65,0.068,1,0.43024,1
9,2,15,35,1,0,6.236,1
10,2,10,65,0.068,1,1.5301,1
11,1,10,90,1,1,0.17006,0
12,2,21,90,0.5,1,0.17091,1
13,2,7,75,0.5,1,0.010465,1
14,2,7,65,0.5,1,0.31522,1
15,1,15,65,0.068,0,0.12964,0
16,2,21,25,0.068,0,0.17354,1
17,1,15,35,1,0,0.354,0
18,2,21,90,0.5,1,0.012079,1
19,1,10,65,0.068,0,0.33885,1
20,1,21,90,0.5,0,4.5924,0
21,2,4,18,0.068,0,0.0098347,1
22,1,7,75,0.5,1,0.012216,0
23,2,15,65,0.5,1,0.058328,1
24,1,7,65,0.5,1,0.11659,0
25,2,4,18,1,0,1.1215,1
26,2,21,18,0.5,0,0.0090738,1
27,1,21,25,0.068,0,0.34532,0
28,2,15,35,0.068,0,0.40706,1
29,2,4,90,1,0,3.4432,0
30,1,21,90,0.5,1,0.056706,1
31,1,4,18,0.068,0,0.74535,1
32,2,4,65,1,1,0.0098729,1
33,1,15,65,0.5,1,0.042276,1
34,1,4,18,1,0,8.342,1
35,1,21,18,0.5,0,0.204,0
36,1,15,35,0.068,1,0.72818,1
37,2,15,65,0.068,1,0.543,1
38,2,21,90,0.068,1,0.49712,1
39,1,4,90,1,1,0.40135,0
40,2,4,25,1,0,0.032551,1
41,1,4,65,1,0,8.7221,1
42,1,15,65,0.068,1,0.45383,1
43,1,21,90,0.068,1,0.50775,1
44,2,10,35,0.068,1,0.52389,0
45,2,4,35,0.068,0,0.53021,1
46,2,4,25,0.5,0,0.010213,1
47,2,4,75,0.068,1,0.33698,1
48,1,4,25,1,0,6.1167,1
49,2,15,65,1,1,0.011506,1
50,2,7,35,0.5,0,0.073116,1
51,1,10,35,0.068,0,0.4504,1
52,2,7,65,0.068,0,0.44249,0
53,1,4,35,0.068,0,0.43618,1
54,1,4,25,0.5,0,0.018072,1
55,1,4,75,0.068,0,0.4812,1
56,1,15,65,1,0,1.9929,0
57,2,18,25,0.068,0,0.43895,1
58,1,7,35,0.5,0,0.012675,1
59,2,18,75,0.5,1,0.22454,1
60,1,7,65,0.068,1,0.46928,0
61,1,18,25,0.068,0,0.47843,0
62,1,18,75,0.5,1,0.32339,1
63,1,21,35,0.068,0,1.8091,0
64,1,15,18,0.5,0,0.091549,0
65,1,4,90,0.5,1,0.091055,0
66,2,21,35,0.068,1,1.3474,0
67,2,15,18,0.5,0,0.14899,1
68,2,4,90,0.5,1,0.28384,1
69,2,4,65,0.068,1,0.54403,1
70,2,18,75,0.5,1,0.063456,1
71,1,4,65,0.068,1,1.4347,0
72,1,18,75,0.5,0,5.8522,0
73,1,18,25,0.5,0,0.23066,0
74,1,21,75,0.5,1,0.14665,1
75,1,15,25,1,0,2.7636,0
76,1,18,25,1,0,3.759,0
77,2,18,25,0.5,0,0.27053,1
78,2,21,75,0.5,1,0.18862,1
79,2,15,25,1,1,4.1506,0
80,2,18,25,1,0,5.5397,1
81,2,18,75,0.068,1,2.6291,1
82,2,18,90,0.068,1,0.537,1
83,2,18,75,1,0,2.0565,0
84,2,7,75,0.068,1,5.2718,1
85,2,10,90,1,1,8.0534,1
86,1,18,75,0.068,0,3.2014,0
87,2,10,35,0.5,0,0.25162,1
88,2,21,90,1,0,2.7784,0
89,1,18,90,0.068,1,0.5952,1
90,1,18,75,1,0,7.1901,0
91,1,7,75,0.068,1,0.66374,0
92,1,10,90,1,1,0.0097698,0
93,2,10,18,0.068,0,0.60464,1
94,2,4,75,1,0,3.3715,0
95,1,10,35,0.5,0,0.079219,1
96,2,10,90,0.5,1,0.30902,1
97,1,21,90,1,0,5.7784,0
98,1,10,18,0.068,0,0.56824,1
99,1,4,75,1,0,0.30728,1
100,2,18,90,1,0,3.3454,0
101,2,15,25,0.5,0,0.063809,1
102,1,10,90,0.5,0,0.22868,1
103,2,21,75,1,0,4.5208,0
104,2,10,35,1,0,8.1705,1
105,2,7,18,1,0,1.684,1
106,1,18,90,1,0,8.3146,0
107,2,4,90,0.068,0,1.4845,0
108,2,7,75,1,0,3.5957,0
109,1,15,25,0.5,0,0.06654,0
110,2,21,25,1,0,0.020128,1
111,2,15,25,0.5,0,0.011678,1
112,2,10,90,0.5,0,2.3726,0
113,1,21,75,1,1,0.011869,1
114,1,10,35,1,1,5.1013,0
115,1,7,18,1,0,6.0061,1
116,2,4,65,0.5,1,0.58474,1
117,1,4,90,0.068,1,2.7388,0
118,1,7,75,1,1,0.81346,0
119,2,4,75,0.5,1,2.1433,1
120,1,21,25,1,0,3.5135,0
121,1,15,25,0.5,0,0.47219,0
122,2,21,35,1,0,1.7055,1
123,1,10,90,0.5,1,4.1739,0
124,2,10,18,0.5,0,0.28337,1
125,1,4,65,0.5,0,2.0365,1
126,2,18,90,0.5,1,1.2236,1
127,2,15,25,0.068,1,8.989,0
128,1,4,75,0.5,1,0.20445,0
129,1,21,35,1,1,0.43053,1
130,2,4,25,0.068,1,2.016,0
131,2,10,18,0.5,0,0.17586,1
132,2,10,18,1,0,3.8375,1
133,2,21,18,0.068,0,1.1807,1
134,2,18,65,1,0,20.0596,0
135,1,10,18,0.5,0,0.22245,1
136,1,18,90,0.5,0,0.049774,0
137,2,21,75,0.068,1,0.46756,1
138,2,18,25,1,0,4.6838,1
139,2,18,75,1,0,3.2174,0
140,1,15,25,0.068,0,0.55859,0
141,2,18,65,0.068,1,0.54553,1
142,2,10,90,0.068,0,2.4323,0
143,2,21,90,1,0,6.2859,0
144,1,4,25,0.068,0,0.55019,1
145,1,10,18,0.5,0,0.0092095,1
146,2,7,18,0.5,0,0.26724,1
147,1,10,18,1,0,5.6156,1
148,2,10,90,0.068,0,2.3951,0
149,1,21,18,0.068,0,0.40797,0
150,2,21,18,1,0,11.5947,1
151,2,15,65,0.5,1,0.21921,1
152,1,18,65,1,0,2.3793,0
153,1,21,75,0.068,1,0.53031,1
154,1,18,25,1,1,0.020206,1
155,2,15,25,1,0,0.92973,1
156,2,7,75,0.5,1,0.063849,1
157,2,15,35,0.5,0,0.42789,1
158,1,18,75,1,0,1.0315,0
159,2,15,18,0.068,0,0.49442,1
160,1,18,65,0.068,0,2.8232,0
161,1,10,90,0.068,1,0.45738,0
162,1,21,90,1,1,9.2968,1
163,1,7,18,0.5,0,3.0708,1
164,1,10,90,0.068,1,0.39162,0
165,2,7,65,1,0,1.2171,0
166,2,7,18,0.068,0,5.0831,1
167,1,21,18,1,1,8.1616,1
168,1,15,65,0.5,1,0.09242,1
169,2,18,25,0.5,0,0.91732,1
170,2,7,35,0.5,0,0.20672,1
171,1,15,25,1,1,0.32936,1
172,1,7,75,0.5,0,1.2808,1
173,1,15,35,0.5,0,0.0097238,0
174,1,15,18,0.068,0,0.44861,0
175,2,15,65,1,1,0.010947,1
176,1,7,65,1,1,0.19749,0
177,1,7,18,0.068,0,2.3091,1
178,1,18,25,0.5,0,0.020858,0
179,1,7,35,0.5,0,2.8812,1
180,2,4,35,1,0,4.2114,1
181,1,15,65,1,1,0.068961,1
182,1,4,35,1,0,0.011541,1
183,1,10,65,1,0,9.9632,1
184,2,10,65,1,0,1.8106,0
185,1,7,75,1,1,1.3023,0
186,2,7,75,1,0,1.6997,0
187,1,10,18,0.068,0,0.46959,1
188,2,10,18,0.068,0,0.62329,1
189,1,4,18,0.5,0,1.3439,1
190,1,18,25,0.068,0,0.45835,0
191,1,7,75,0.068,0,5.046,1
192,2,4,18,0.5,0,0.016938,1
193,1,7,35,0.068,0,1.4197,1
194,2,18,25,0.068,0,0.28793,1
195,2,7,75,0.068,1,2.4771,1
196,1,10,18,1,0,0.0093092,1
197,1,21,25,0.5,0,0.013111,0
198,2,7,35,0.068,0,3.2411,1
199,2,10,18,1,0,7.8448,1
200,1,21,90,0.068,0,1.7112,0
201,1,7,35,1,0,0.06345,1
202,2,21,25,0.5,0,0.087419,1
203,2,21,90,0.068,1,1.5796,1
204,2,7,35,1,1,6.1439,0
205,1,21,35,0.5,0,0.061554,0
206,2,21,35,0.5,1,0.54128,0
207,1,7,35,0.068,1,0.46461,0
208,2,7,35,0.068,0,4.5001,1
209,1,15,25,0.068,0,5.3326,0
210,2,15,25,0.068,0,4.0695,1
211,1,10,65,0.5,1,0.281,0
212,2,10,65,0.5,1,0.81382,1
213,2,18,65,0.5,1,0.062139,1
214,1,18,65,0.5,1,0.012372,1
215,1,7,35,1,1,4.2959,0
216,2,7,35,1,1,0.52001,0
