Trial Number,TrialTypeN1S2,Nvalue,Svalue,time,KeyPressZsmallMgreater,ReactionTime,Accuracy
1,2,21,25,0.5,0,2.5172,1
2,2,7,65,0.068,0,2.0825,0
3,1,21,25,0.5,1,1.3876,1
4,2,15,90,0.5,1,1.1139,1
5,2,4,35,0.5,0,2.3833,1
6,1,7,65,0.068,0,1.7802,1
7,2,18,25,0.5,0,1.3714,1
8,2,4,75,0.5,1,1.0616,1
9,1,15,90,0.5,0,1.1949,0
10,2,4,25,1,1,7.8845,0
11,1,4,35,0.5,0,1.1799,1
12,1,18,25,0.5,1,2.9707,1
13,2,18,25,1,0,1.825,1
14,1,4,75,0.5,0,1.9937,1
15,1,4,25,1,0,0.42295,1
16,2,7,65,1,0,7.831,0
17,2,18,35,1,0,1.8329,1
18,1,18,25,1,1,1.8066,1
19,1,7,65,1,0,1.3709,1
20,2,10,25,1,0,1.6968,1
21,2,10,65,0.5,0,1.5782,0
22,2,21,90,0.5,1,1.3237,1
23,2,10,65,1,1,1.3182,1
24,1,18,35,1,1,1.9033,1
25,1,10,25,1,0,1.3663,1
26,1,10,65,0.5,0,1.7917,1
27,1,21,90,0.5,1,1.118,1
28,2,21,90,0.068,1,1.2752,1
29,2,10,65,1,1,1.5276,1
30,2,18,18,0.068,0,1.7931,1
31,1,10,65,1,0,1.544,1
32,2,7,65,0.068,1,1.7654,1
33,2,10,18,1,0,0.95486,1
34,2,21,90,1,1,0.13369,1
35,1,21,90,0.068,0,3.0741,0
36,2,18,35,0.068,0,1.2664,1
37,2,7,90,0.5,1,0.72844,1
38,2,10,65,0.5,0,1.4394,0
39,2,7,35,0.5,0,0.95035,1
40,1,10,65,1,1,1.3907,0
41,1,18,18,0.068,1,2.2733,1
42,1,7,65,0.068,0,1.3593,1
43,1,10,18,1,0,1.4172,1
44,1,21,90,1,1,0.0024017,1
45,1,18,35,0.068,1,1.4904,1
46,2,15,18,1,0,0.1571,1
47,1,7,90,0.5,1,1.5249,0
48,2,7,90,0.5,1,1.5749,1
49,1,10,65,0.5,0,1.7891,1
50,1,7,35,0.5,0,1.4323,1
51,2,10,75,0.5,0,1.1162,0
52,1,15,18,1,0,1.1084,0
53,2,21,18,0.5,1,1.6225,0
54,2,10,65,0.068,1,1.3187,1
55,1,7,90,0.5,0,4.7052,1
56,1,10,75,0.5,0,1.3262,1
57,2,15,35,0.068,0,6.4557,1
58,2,7,18,0.068,0,1.5912,1
59,2,18,18,1,0,1.1375,1
60,1,21,18,0.5,1,1.1746,1
61,2,10,35,0.5,0,1.5474,1
62,1,10,65,0.068,0,2.5435,1
63,2,21,35,0.068,0,1.4128,1
64,2,15,75,0.5,1,1.5304,1
65,2,21,18,1,0,1.6903,1
66,2,7,90,0.068,1,1.2436,1
67,2,7,18,1,0,1.1394,1
68,1,15,35,0.068,0,2.2397,0
69,2,21,90,1,1,1.0852,1
70,2,21,25,1,0,1.231,1
71,2,7,35,1,0,3.0364,1
72,1,7,18,0.068,0,2.0978,1
73,1,18,18,1,0,0.67805,0
74,2,15,35,0.5,0,1.3139,1
75,2,7,35,0.068,1,1.621,0
76,1,10,35,0.5,0,1.1814,1
77,1,21,35,0.068,1,1.2885,1
78,1,15,75,0.5,1,1.1853,1
79,2,4,75,1,1,1.3512,1
80,1,21,18,1,1,1.3591,1
81,2,15,90,1,1,1.5118,1
82,1,7,90,0.068,0,1.5737,1
83,1,7,18,1,0,3.5914,1
84,2,4,35,1,0,1.815,1
85,1,21,90,1,1,1.7134,1
86,1,21,25,1,1,1.4397,1
87,2,10,35,1,0,1.6336,1
88,1,7,35,1,0,1.7113,1
89,2,7,90,1,0,1.2758,0
90,1,15,35,0.5,1,2.0443,1
91,1,7,35,0.068,0,1.7008,1
92,2,4,25,0.068,1,1.8892,0
93,1,4,75,1,0,1.1309,1
94,1,15,90,1,1,1.8783,1
95,2,4,75,0.068,1,1.365,1
96,2,15,75,0.5,0,1.5446,0
97,1,4,35,1,0,1.0548,1
98,1,10,35,1,1,1.0305,0
99,2,15,90,0.068,1,1.7146,1
100,1,7,90,1,0,1.7763,1
101,2,15,75,1,1,1.2869,1
102,1,4,25,0.068,1,6.5266,0
103,2,15,35,1,0,1.5943,1
104,2,4,75,0.068,1,1.3313,1
105,1,4,75,0.068,0,2.3788,1
106,1,15,75,0.5,1,1.7516,1
107,1,15,90,0.068,0,1.5601,0
108,2,4,65,1,0,1.6864,0
109,2,10,75,1,1,2.4921,1
110,1,15,75,1,1,2.6737,1
111,1,15,35,1,1,0.91695,1
112,2,15,75,0.068,1,1.1882,1
113,1,4,75,0.068,0,1.4878,1
114,2,18,18,0.5,0,1.2778,1
115,1,4,65,1,0,1.1259,1
116,1,10,75,1,1,1.5439,0
117,1,15,75,0.068,1,1.6544,1
118,1,18,18,0.5,1,1.4353,1
119,2,7,65,0.5,1,1.1722,1
120,1,7,65,0.5,1,0.89233,0
121,1,15,75,0.5,1,0.61107,1
122,2,15,75,0.5,0,2.0011,0
123,2,7,90,0.068,1,1.215,1
124,1,7,90,0.068,1,1.5021,0
125,1,4,25,1,0,1.4408,1
126,1,7,65,0.5,0,0.95509,1
127,1,15,75,0.068,1,1.5522,1
128,1,18,90,1,1,1.485,1
129,2,4,25,1,0,2.3362,1
130,1,10,65,0.068,0,1.5134,1
131,1,10,18,0.5,0,1.9151,1
132,2,7,65,0.5,1,0.93922,1
133,2,15,75,0.068,1,0.94899,1
134,2,18,90,1,1,0.89555,1
135,2,10,65,0.068,1,0.81312,1
136,1,21,18,0.068,1,1.9635,1
137,2,10,18,0.5,0,1.3866,1
138,1,15,75,1,1,0.67131,1
139,2,21,18,0.068,1,2.7934,0
140,2,15,75,1,1,2.3875,1
141,1,10,75,0.068,0,1.1467,1
142,2,10,75,0.068,1,2.8919,1
143,2,18,65,0.068,1,1.5264,1
144,1,18,65,0.068,1,1.6165,1
145,2,4,65,0.5,0,1.2861,0
146,1,4,65,0.5,0,3.0972,1
147,1,4,75,1,0,1.248,1
148,1,15,75,1,1,1.0548,1
149,2,4,75,1,0,0.66614,0
150,2,15,75,1,1,1.1604,1
151,1,10,25,0.068,0,1.2568,1
152,1,4,25,0.5,0,1.1302,1
153,2,10,25,0.068,1,1.8013,0
154,1,4,25,0.5,0,1.2717,1
155,2,4,25,0.5,0,0.95152,1
156,1,4,35,0.068,0,1.1599,1
157,1,7,90,1,0,0.8579,1
158,2,4,25,0.5,0,1.0927,1
159,2,4,35,0.068,0,0.87788,1
160,2,7,90,1,0,1.0043,0
161,2,21,25,0.068,0,0.85503,1
162,2,15,18,0.068,0,0.64953,1
163,1,21,25,0.068,1,1.0177,1
164,2,18,65,0.5,1,1.1808,1
165,1,15,18,0.068,1,1.2652,1
166,1,18,65,0.5,1,0.83008,1
167,2,21,18,1,1,0.37527,0
168,2,18,90,0.068,1,1.27,1
169,1,21,18,1,1,0.65668,1
170,1,18,90,0.068,0,1.159,0
171,1,10,35,0.068,0,1.6178,1
172,1,21,18,0.068,1,0.95118,1
173,2,10,35,0.068,1,1.1023,0
174,1,21,90,0.068,1,0.87221,1
175,1,7,65,1,0,0.92627,1
176,2,21,18,0.068,1,0.54777,0
177,1,15,75,0.068,1,0.6706,1
178,1,10,25,0.5,0,0.89361,1
179,2,21,90,0.068,1,0.68459,1
180,1,18,65,1,1,0.32563,1
181,2,7,65,1,0,0.43274,0
182,2,15,75,0.068,1,0.24059,1
183,2,10,25,0.5,0,0.96327,1
184,1,21,18,0.5,0,0.36002,0
185,1,4,65,0.068,1,0.50944,0
186,1,18,25,0.068,0,0.47309,0
187,1,4,75,0.5,0,1.799,1
188,2,18,65,1,1,0.81035,1
189,2,21,18,0.5,0,0.76136,1
190,2,4,65,0.068,0,1.3597,0
191,2,18,25,0.068,0,1.0241,1
192,2,4,75,0.5,1,0.81381,1
193,1,18,35,0.5,1,0.74053,1
194,1,18,25,1,0,0.40186,0
195,1,21,35,1,1,0.39781,1
196,1,21,35,0.5,1,0.34536,1
197,2,18,35,0.5,1,0.44633,0
198,1,18,90,0.5,1,1.7248,1
199,2,18,25,1,0,1.0383,1
200,1,18,25,0.068,1,0.75838,1
201,1,10,18,0.068,1,1.0475,0
202,1,7,18,0.5,0,0.85763,1
203,1,15,18,0.5,1,1.0367,1
204,1,21,90,0.5,1,0.7577,1
205,2,21,35,1,0,0.70546,1
206,2,21,35,0.5,1,0.5476,0
207,2,18,90,0.5,1,0.27654,1
208,2,18,25,0.068,1,0.62899,0
209,2,10,18,0.068,0,0.81908,1
210,1,18,25,0.5,0,4.0398,0
211,2,7,18,0.5,0,0.86582,1
212,2,15,18,0.5,0,0.7117,1
213,1,4,25,0.068,0,1.6393,1
214,2,21,90,0.5,1,0.7574,1
215,2,18,25,0.5,0,0.2548,1
216,2,4,25,0.068,0,0.69526,1
