Trial Number,TrialTypeN1S2,Nvalue,Svalue,time,KeyPressZsmallMgreater,ReactionTime,Accuracy
1,1,7,18,0.5,1,8.6333,0
2,2,7,18,0.5,0,2.5859,1
3,2,18,35,0.5,0,5.5264,1
4,2,18,35,1,0,2.1678,1
5,1,18,35,0.5,1,1.8763,1
6,2,18,75,0.068,1,1.203,1
7,2,4,18,1,0,1.6918,1
8,1,18,35,1,1,2.0224,1
9,2,18,75,0.068,1,1.2475,1
10,2,7,18,0.5,0,1.0319,1
11,2,10,25,0.5,0,0.85456,1
12,1,18,75,0.068,1,1.8307,1
13,1,4,18,1,0,1.7868,1
14,2,15,90,0.068,1,1.4367,1
15,1,18,75,0.068,1,2.5639,1
16,1,7,18,0.5,1,1.8183,0
17,1,10,25,0.5,1,1.7338,0
18,2,7,35,0.5,0,1.3177,1
19,2,18,75,1,1,1.2107,1
20,2,18,75,0.068,1,1.0399,1
21,1,15,90,0.068,0,1.5358,0
22,1,7,35,0.5,0,0.87486,1
23,1,18,75,1,1,1.7552,1
24,2,10,25,0.5,0,1.0298,1
25,1,18,75,0.068,0,1.4897,0
26,1,10,25,0.5,0,0.91934,1
27,1,15,90,0.5,1,1.2135,1
28,2,15,90,0.5,1,0.80121,1
29,2,21,25,0.068,0,2.012,1
30,1,21,25,0.068,1,0.84242,1
31,2,18,75,0.068,1,0.80018,1
32,2,15,65,0.068,1,0.77342,1
33,1,18,75,0.068,1,1.1493,1
34,1,15,65,0.068,1,0.63588,1
35,2,7,18,0.068,0,1.3544,1
36,1,7,18,0.068,1,2.1969,0
37,1,21,65,0.068,1,1.2714,1
38,2,21,65,0.068,1,1.1332,1
39,2,10,65,0.5,1,1.2927,1
40,1,10,65,0.5,1,1.2244,0
41,1,7,35,0.5,0,0.73638,1
42,2,7,35,0.5,0,0.86577,1
43,1,10,75,0.068,0,2.8183,1
44,2,10,75,0.068,1,1.1921,1
45,1,7,35,1,0,0.66147,1
46,2,7,35,1,0,0.91264,1
47,1,7,18,1,0,1.0316,1
48,1,21,25,1,1,0.91824,1
49,2,7,18,1,0,0.91484,1
50,1,15,90,0.068,0,1.2736,0
51,2,21,25,1,0,0.76902,1
52,2,15,90,0.068,1,1.317,1
53,1,4,35,1,0,0.71148,1
54,2,4,35,1,0,0.94947,1
55,1,18,35,1,1,0.58028,1
56,1,4,18,1,0,2.4681,1
57,2,18,35,1,0,3.6987,1
58,2,4,18,1,0,1.2691,1
59,1,10,25,1,1,2.3314,0
60,2,10,25,1,0,5.3753,1
61,1,4,25,0.5,0,1.4883,1
62,2,4,25,0.5,0,1.5232,1
63,1,18,75,1,1,1.6548,1
64,1,15,90,1,1,1.4952,1
65,2,18,75,1,1,0.52249,1
66,1,10,65,0.068,1,0.93038,0
67,1,4,18,0.068,0,1.9751,1
68,1,10,90,1,0,0.62286,1
69,1,15,90,0.068,1,1.7422,1
70,2,15,90,1,1,0.67348,1
71,1,7,18,0.068,1,1.5181,0
72,2,10,65,0.068,1,0.94874,1
73,2,4,18,0.068,0,1.0322,1
74,2,10,90,1,1,0.89092,1
75,2,15,90,0.068,1,0.58985,1
76,2,7,18,0.068,0,0.67883,1
77,1,4,18,0.5,0,0.62438,1
78,1,18,75,1,1,0.99123,1
79,2,4,18,0.5,0,0.73077,1
80,1,15,65,0.5,1,0.52882,1
81,2,18,75,1,1,1.6231,1
82,1,21,25,0.068,0,1.2456,0
83,1,4,18,0.5,0,0.40181,1
84,2,15,65,0.5,1,0.70912,1
85,1,7,18,0.5,0,0.14369,1
86,1,10,90,0.5,1,1.1656,0
87,2,21,25,0.068,0,2.5721,1
88,2,4,18,0.5,0,1.2029,1
89,1,7,18,1,0,1.3393,1
90,1,18,75,0.5,0,11.2373,0
91,2,7,18,0.5,0,3.6074,1
92,1,4,25,0.068,0,11.6625,1
93,2,10,90,0.5,1,2.2915,1
94,2,7,18,1,0,1.422,1
95,2,18,75,0.5,1,1.5785,1
96,2,4,25,0.068,0,1.3016,1
97,1,7,35,1,0,0.91941,1
98,2,7,35,1,1,7.2091,0
99,1,21,65,1,1,5.2347,1
100,2,21,65,1,1,1.4153,1
101,1,10,25,0.5,0,3.55,1
102,2,10,25,0.5,0,4.5119,1
103,1,15,65,1,1,2.934,1
104,2,15,65,1,1,1.3974,1
105,2,15,90,0.5,1,7.1294,1
106,2,15,65,1,1,2.706,1
107,2,4,18,1,1,3.1302,0
108,1,15,90,0.5,0,2.75,0
109,2,18,75,1,1,3.445,1
110,2,21,90,1,1,3.3701,1
111,2,4,65,0.5,1,1.2726,1
112,1,15,65,1,0,3.1685,0
113,1,4,18,1,0,1.5864,1
114,1,18,75,1,1,0.77375,1
115,1,21,90,1,1,1.4339,1
116,1,4,65,0.5,0,2.2271,1
117,1,21,65,1,0,2.6808,0
118,1,4,18,0.068,0,1.1124,1
119,1,10,65,1,0,1.6422,1
120,1,10,25,0.068,1,1.3137,0
121,2,21,65,1,1,2.1977,1
122,2,4,18,0.068,0,2.1474,1
123,2,10,65,1,1,1.0954,1
124,2,10,25,0.068,0,1.4786,1
125,1,4,65,0.068,1,4.2065,0
126,2,4,65,0.068,1,1.0958,1
127,1,18,35,0.5,1,5.4297,1
128,2,18,35,0.5,0,7.0725,1
129,1,18,75,0.5,0,3.366,0
130,1,15,90,0.5,0,5.2785,0
131,1,10,90,0.068,0,4.9641,1
132,1,21,25,0.5,1,1.1813,1
133,2,18,75,0.5,1,4.1632,1
134,1,10,75,1,0,4.2123,1
135,1,4,35,0.068,0,3.5463,1
136,1,21,75,0.068,1,3.4898,1
137,1,21,90,0.068,1,1.9671,1
138,2,15,90,0.5,1,4.1739,1
139,2,10,90,0.068,1,0.94498,1
140,1,4,25,1,0,2.8078,1
141,2,21,25,0.5,0,0.84047,1
142,1,4,65,1,0,0.86425,1
143,2,10,75,1,0,1.4075,0
144,1,15,90,1,1,0.78722,1
145,1,21,65,0.068,1,0.77924,1
146,2,4,35,0.068,0,0.83413,1
147,1,10,25,0.068,0,1.4457,1
148,2,21,75,0.068,0,3.1333,0
149,2,21,90,0.068,1,0.67192,1
150,1,10,75,0.5,0,0.49777,1
151,1,4,35,0.5,0,0.40512,1
152,2,4,25,1,0,0.4649,1
153,2,4,65,1,0,1.2614,0
154,1,7,35,0.5,0,2.299,1
155,2,15,90,1,1,1.7997,1
156,2,21,65,0.068,1,0.61176,1
157,2,10,25,0.068,0,0.89717,1
158,1,21,25,0.5,1,0.65148,1
159,1,21,25,1,1,1.1114,1
160,1,15,90,1,1,1.4442,1
161,2,10,75,0.5,0,3.3919,0
162,2,4,35,0.5,0,0.88348,1
163,2,7,35,0.5,0,3.2376,1
164,1,7,18,0.068,0,5.6379,1
165,1,15,90,0.068,0,6.9018,0
166,1,18,75,0.5,0,7.6062,0
167,1,4,18,0.5,0,0.77795,1
168,2,21,25,0.5,0,1.0367,1
169,2,21,25,1,0,1.2374,1
170,1,21,65,0.5,1,4.1084,1
171,1,10,25,0.068,0,0.90232,1
172,2,15,90,1,1,1.1818,1
173,2,7,18,0.068,0,2.4017,1
174,2,15,90,0.068,1,0.78424,1
175,2,18,75,0.5,1,0.70446,1
176,1,15,90,0.5,1,1.1287,1
177,2,4,18,0.5,0,2.3882,1
178,1,21,75,0.5,0,1.6494,0
179,2,21,65,0.5,1,0.54135,1
180,1,18,35,0.068,1,2.3109,1
181,2,10,25,0.068,0,0.74347,1
182,2,15,90,0.5,0,4.7198,0
183,1,4,18,0.068,0,3.4164,1
184,1,18,35,0.068,0,3.6674,0
185,1,10,25,1,1,1.6153,0
186,2,21,75,0.5,1,0.73532,1
187,2,18,35,0.068,0,3.0621,1
188,1,15,90,1,1,1.5234,1
189,1,18,75,0.5,1,3.3102,1
190,1,21,90,0.5,1,3.226,1
191,2,4,18,0.068,0,3.9195,1
192,1,7,18,1,1,3.9333,0
193,2,18,35,0.068,0,1.968,1
194,2,10,25,1,0,1.6165,1
195,2,15,90,1,0,2.3806,0
196,2,18,75,0.5,0,3.5007,0
197,2,21,90,0.5,1,0.37498,1
198,1,7,35,1,1,1.7603,0
199,2,7,18,1,0,5.2848,1
200,2,7,35,1,0,3.5029,1
201,1,21,75,1,1,2.8195,1
202,2,21,75,1,0,3.8425,0
203,2,15,65,0.5,0,2.1013,0
204,2,7,35,0.068,0,0.61813,1
205,2,7,35,0.068,0,1.9374,1
206,1,15,65,0.5,1,0.70692,1
207,1,7,35,0.068,0,1.6477,1
208,2,15,65,0.068,0,3.5254,0
209,2,10,25,1,0,7.8085,1
210,1,7,35,0.068,1,6.6445,0
211,2,21,65,0.5,0,2.209,0
212,2,7,35,0.068,0,8.6848,1
213,1,15,65,0.068,1,2.2101,1
214,1,10,25,1,1,0.90517,0
215,1,21,65,0.5,1,4.0903,1
216,1,7,35,0.068,0,3.4006,1
