Trial Number,TrialTypeN1S2,Nvalue,Svalue,time,KeyPressZsmallMgreater,ReactionTime,Accuracy
1,2,15,75,1,0,2.8759,0
2,1,15,75,1,1,1.41,1
3,2,15,65,0.068,1,1.7709,1
4,1,15,65,0.068,0,1.5365,0
5,1,18,65,1,1,1.1992,1
6,1,18,90,1,1,1.637,1
7,1,21,75,0.068,0,4.5019,0
8,1,18,25,0.068,0,3.4929,0
9,2,18,65,1,1,1.3985,1
10,2,18,90,1,0,2.8456,0
11,1,18,18,1,0,1.5913,0
12,2,21,75,0.068,1,1.1785,1
13,2,18,25,0.068,0,1.6493,1
14,2,18,18,1,0,0.42187,1
15,1,4,75,0.068,0,0.95519,1
16,2,4,75,0.068,1,3.6944,1
17,1,7,25,0.5,0,0.072933,1
18,2,7,25,0.5,0,0.21164,1
19,2,10,90,0.068,1,0.95132,1
20,1,10,90,0.068,0,0.77327,1
21,1,21,18,1,0,0.57598,0
22,1,18,25,0.5,1,0.48534,1
23,1,21,25,0.068,0,0.73594,0
24,2,21,18,1,0,0.44781,1
25,1,15,75,0.068,0,1.0853,0
26,1,21,75,1,0,0.54303,0
27,1,18,65,0.5,0,0.51739,0
28,1,18,75,0.5,0,0.59148,0
29,2,18,25,0.5,1,0.63433,0
30,2,21,25,0.068,0,0.94311,1
31,1,7,25,0.5,1,0.89247,0
32,2,15,75,0.068,0,3.648,0
33,1,18,90,1,0,1.0506,0
34,1,4,25,0.5,0,0.75407,1
35,1,18,90,0.068,1,1.3991,1
36,1,15,75,0.068,0,0.66769,0
37,2,21,75,1,1,0.70908,1
38,1,10,90,1,0,1.108,1
39,1,4,90,1,0,1.0221,1
40,2,18,65,0.5,0,1.7054,0
41,1,18,75,1,1,0.57241,1
42,2,18,75,0.5,1,1.0366,1
43,2,7,25,0.5,0,0.91117,1
44,2,18,90,1,1,1.4043,1
45,1,21,75,0.5,0,0.89285,0
46,1,18,90,0.068,0,0.86522,0
47,2,4,25,0.5,1,1.3295,0
48,2,18,90,0.068,1,1.4702,1
49,1,21,65,0.5,0,1.1394,0
50,1,7,25,1,0,0.66574,1
51,2,15,75,0.068,1,1.2284,1
52,2,10,90,1,0,10.3921,0
53,2,4,90,1,0,2.4122,0
54,2,18,75,1,1,2.3949,1
55,1,10,35,1,0,1.9301,1
56,1,18,18,0.068,0,2.8335,0
57,1,18,65,0.068,0,0.91125,0
58,2,21,75,0.5,0,1.506,0
59,1,4,75,0.5,0,1.1089,1
60,1,4,18,0.068,1,2.5697,0
61,1,10,35,1,0,0.42682,1
62,2,18,90,0.068,0,1.2955,0
63,2,21,65,0.5,1,1.0604,1
64,1,15,75,0.5,1,0.14738,1
65,2,7,25,1,0,0.69371,1
66,2,10,35,1,0,1.7123,1
67,2,18,18,0.068,0,1.7528,1
68,1,10,65,0.068,1,1.8328,0
69,2,18,65,0.068,0,1.3267,0
70,2,4,75,0.5,0,2.3283,0
71,1,21,65,1,1,0.46104,1
72,1,7,65,0.068,0,0.54566,1
73,2,4,18,0.068,1,0.99482,0
74,2,10,35,1,0,0.45368,1
75,2,15,75,0.5,1,1.1585,1
76,2,10,65,0.068,0,0.64578,0
77,1,7,35,1,0,1.4946,1
78,1,15,35,0.068,0,0.71679,0
79,2,21,65,1,0,1.7505,0
80,1,21,25,1,0,1.2221,0
81,1,10,35,0.5,0,0.43911,1
82,2,7,65,0.068,0,1.1865,0
83,2,7,35,1,0,1.1897,1
84,1,7,18,1,1,1.0578,0
85,2,15,35,0.068,0,0.72468,1
86,1,15,35,1,1,1.7585,1
87,2,21,25,1,0,1.389,1
88,1,21,35,0.5,1,0.88444,1
89,2,10,35,0.5,1,0.87581,0
90,1,15,65,1,1,0.99498,1
91,1,7,25,0.068,0,0.89657,1
92,2,7,18,1,0,0.82285,1
93,1,4,90,0.5,0,4.4918,1
94,1,15,75,1,0,1.5085,0
95,1,4,25,0.068,0,0.70445,1
96,1,4,25,0.068,0,1.0204,1
97,1,7,35,0.068,0,1.9649,1
98,2,15,35,1,0,1.0151,1
99,1,10,90,1,1,0.38637,0
100,1,18,75,0.068,1,0.57593,1
101,2,21,35,0.5,0,1.5042,1
102,2,15,65,1,1,0.84306,1
103,1,10,65,0.5,0,0.66721,1
104,2,7,25,0.068,0,1.5544,1
105,2,4,90,0.5,1,0.89482,1
106,1,21,18,0.5,0,0.58088,0
107,2,15,75,1,1,1.1031,1
108,2,4,25,0.068,1,1.3001,0
109,2,4,25,0.068,0,1.1954,1
110,2,7,35,0.068,0,2.6346,1
111,2,10,90,1,1,0.79296,1
112,1,4,18,0.5,0,1.5875,1
113,2,18,75,0.068,0,2.1698,0
114,1,18,90,0.5,1,0.48204,1
115,2,10,65,0.5,0,1.5184,0
116,1,7,35,0.5,0,0.6956,1
117,2,21,18,0.5,0,0.82086,1
118,2,4,18,0.5,0,1.1742,1
119,1,4,25,0.5,1,1.1529,0
120,2,18,90,0.5,1,1.2717,1
121,1,4,18,0.068,0,1.3903,1
122,2,7,35,0.5,0,1.2351,1
123,2,4,25,0.5,0,1.027,1
124,1,4,18,0.5,1,1.151,0
125,2,4,18,0.068,0,1.0089,1
126,2,4,18,0.5,0,0.89018,1
127,1,10,65,1,1,0.69232,0
128,2,10,65,1,1,0.26083,1
129,1,7,65,1,0,0.77625,1
130,1,21,35,0.068,0,0.73873,0
131,1,15,75,0.5,1,1.3528,1
132,1,18,25,1,1,0.97487,1
133,1,15,75,1,1,1.1813,1
134,2,7,65,1,1,1.0888,1
135,1,21,35,1,0,1.0213,0
136,1,7,65,0.5,0,0.62017,1
137,1,10,18,0.5,1,4.3007,0
138,2,21,35,0.068,0,0.63456,1
139,2,15,75,0.5,1,0.65232,1
140,1,7,18,0.5,0,3.9999,1
141,2,18,25,1,0,1.2089,1
142,1,15,65,0.068,1,0.92431,1
143,2,15,75,1,1,0.50518,1
144,2,21,35,1,0,1.8562,1
145,2,7,65,0.5,1,0.42869,1
146,1,4,18,1,0,0.45314,1
147,1,15,65,1,1,5.3695,1
148,2,10,18,0.5,0,1.0945,1
149,1,10,35,0.068,0,0.59907,1
150,1,7,25,0.068,0,0.42341,1
151,1,7,35,1,1,2.729,0
152,2,7,18,0.5,0,0.0015685,1
153,2,15,65,0.068,0,0.94628,0
154,2,4,18,1,1,2.1934,0
155,2,15,65,1,0,0.5468,0
156,1,7,25,1,1,0.42732,0
157,2,10,35,0.068,0,2.3116,1
158,1,18,90,0.5,0,1.5631,0
159,1,21,90,0.5,1,1.6108,1
160,1,10,35,0.068,1,0.68574,0
161,2,7,25,0.068,0,0.43337,1
162,2,7,35,1,0,0.80715,1
163,2,7,25,1,1,0.0031972,0
164,2,18,90,0.5,1,1.3186,1
165,2,21,90,0.5,1,0.76393,1
166,2,10,35,0.068,1,1.9868,0
167,2,4,25,1,0,0.36687,1
168,2,21,90,1,1,0.92913,1
169,1,4,25,1,0,0.61218,1
170,2,4,75,1,0,0.57049,0
171,1,21,90,1,0,0.82083,0
172,2,10,90,0.5,1,0.71313,1
173,1,4,75,1,1,1.395,0
174,2,21,90,0.068,1,0.84706,1
175,1,10,90,0.5,1,0.0028135,0
176,2,21,65,0.068,0,0.62854,0
177,2,7,35,0.5,1,0.0025309,0
178,2,21,18,0.068,1,0.018631,0
179,1,21,90,0.068,1,0.35086,1
180,1,21,65,0.068,0,0.44615,0
181,1,7,35,0.5,1,0.49931,0
182,2,15,65,0.5,0,0.026024,0
183,1,21,18,0.068,1,0.51263,1
184,2,10,18,0.068,0,1.0289,1
185,1,15,65,0.5,0,0.037765,0
186,1,10,18,0.068,0,0.57167,1
187,2,10,35,0.5,1,0.84156,0
188,1,10,35,0.5,0,1.065,1
189,2,10,90,0.068,1,0.93243,1
190,2,15,35,0.5,0,0.033062,1
191,1,10,90,0.068,0,1.0375,1
192,2,4,18,1,0,0.0036589,1
193,1,15,35,0.5,1,1.0317,1
194,1,4,18,1,0,0.76204,1
195,1,10,90,0.5,0,0.67412,1
196,2,10,90,0.5,1,1.1465,1
197,2,15,75,0.068,1,0.81005,1
198,2,18,18,0.5,0,0.20185,1
199,2,7,18,0.068,0,0.57888,1
200,2,21,25,0.5,0,0.58833,1
201,1,15,75,0.068,1,1.6422,1
202,2,15,65,0.5,1,1.0089,1
203,1,18,18,0.5,0,0.96446,0
204,1,7,18,0.068,1,1.146,0
205,2,4,25,1,0,1.0151,1
206,1,21,25,0.5,1,1.1376,1
207,1,15,65,0.5,1,1.3584,1
208,1,4,25,1,0,0.47242,1
209,1,4,90,0.068,0,1.2593,1
210,1,10,18,1,0,0.53875,1
211,2,4,90,0.068,1,1.7957,1
212,1,15,75,0.5,1,1.5895,1
213,1,7,35,0.068,1,0.95685,0
214,2,10,18,1,0,1.1156,1
215,2,15,75,0.5,1,0.81542,1
216,2,7,35,0.068,1,0.7083,0
