Trial Number,TrialTypeN1S2,Nvalue,Svalue,time,KeyPressZsmallMgreater,ReactionTime,Accuracy
1,1,15,65,0.068,0,1.0115,0
2,1,10,35,0.068,1,0.30754,0
3,2,15,65,0.068,0,0.20775,0
4,2,10,35,0.068,1,0.26757,0
5,2,7,25,0.068,1,0.36711,0
6,2,7,65,0.068,0,0.27688,0
7,1,7,25,0.068,1,1.773,0
8,2,18,90,1,0,3.3487,0
9,1,7,65,0.068,0,0.71048,1
10,2,4,75,0.068,0,0.33664,0
11,2,18,90,0.5,1,0.65322,1
12,1,18,90,1,1,0.45134,1
13,1,4,75,0.068,1,0.35552,0
14,1,18,90,0.5,1,0.0016143,1
15,1,7,25,0.5,0,0.29414,1
16,2,7,25,0.5,1,0.29294,0
17,2,18,25,0.5,0,0.67642,1
18,2,4,75,1,0,0.40685,0
19,2,10,18,0.068,0,2.6014,1
20,2,7,75,0.5,0,0.080353,0
21,1,18,25,0.5,1,0.21042,1
22,2,21,35,0.5,0,0.0021951,1
23,2,15,25,1,0,2.5732,1
24,1,4,75,1,0,0.84014,1
25,2,18,18,0.068,1,0.66146,0
26,2,10,18,0.068,0,3.0263,1
27,2,15,25,0.068,0,2.0597,1
28,1,10,18,0.068,0,1.4199,1
29,1,7,75,0.5,0,2.112,1
30,2,4,35,0.5,0,0.73754,1
31,1,21,35,0.5,1,1.2679,1
32,1,15,25,1,0,0.0019369,0
33,2,21,65,0.068,1,0.001574,1
34,1,18,18,0.068,1,0.10283,1
35,2,21,18,0.068,1,0.0017937,0
36,1,10,18,0.068,1,0.057761,0
37,1,15,25,0.068,1,0.014944,1
38,1,4,35,0.5,0,0.0019952,1
39,2,7,90,0.068,1,0.20809,1
40,1,21,65,0.068,1,1.5054,1
41,2,15,75,0.068,0,0.34319,0
42,1,21,18,0.068,1,4.3141,1
43,2,4,35,1,1,0.79689,0
44,2,10,65,0.5,1,1.3027,1
45,1,7,90,0.068,1,2.1116,0
46,1,15,75,0.068,0,5.7242,0
47,1,4,35,1,1,2.8128,0
48,1,10,65,0.5,1,1.0037,0
49,1,10,18,0.5,0,0.37357,1
50,1,7,65,1,1,0.35058,0
51,2,10,18,0.5,1,0.0016576,0
52,1,15,35,0.068,0,0.17199,0
53,1,21,65,1,1,0.0018675,1
54,2,7,65,1,1,2.1301,1
55,1,18,90,0.068,0,0.0026028,0
56,1,10,65,0.068,1,0.30699,0
57,2,15,35,0.068,1,2.9178,0
58,2,21,65,1,1,1.953,1
59,2,18,90,0.068,0,0.0016604,0
60,2,10,65,0.068,0,0.0017098,0
61,2,7,35,0.068,1,0.0022502,0
62,2,10,35,0.5,1,0.86717,0
63,1,7,35,0.068,0,0.018443,1
64,2,10,18,0.5,1,0.0016375,0
65,2,18,25,0.068,0,0.0021936,1
66,1,10,35,0.5,0,0.52183,1
67,2,15,18,0.5,0,1.5211,1
68,2,21,35,0.068,1,0.15687,0
69,2,15,65,1,1,0.001613,1
70,1,10,18,0.5,1,3.2117,0
71,1,18,25,0.068,1,0.0020903,1
72,1,15,18,0.5,1,0.0015927,1
73,1,21,35,0.068,1,0.0021287,1
74,2,7,35,0.5,1,0.0015914,0
75,2,10,18,1,1,0.094971,0
76,2,4,75,0.068,1,2.2429,1
77,1,15,65,1,0,0.001623,0
78,1,7,35,0.5,0,4.4429,1
79,1,10,18,1,0,0.001569,1
80,1,4,75,0.068,1,0.0021297,0
81,2,10,65,1,1,1.4645,1
82,2,4,35,1,1,2.0454,0
83,2,7,75,1,1,0.0021888,1
84,2,21,18,1,0,0.033716,1
85,1,10,65,1,1,0.0019267,0
86,2,15,35,0.5,1,0.0015768,0
87,1,4,35,1,1,2.1173,0
88,2,4,75,0.5,1,0.0015773,1
89,2,21,25,0.068,1,0.060876,0
90,2,21,90,1,0,0.034708,0
91,1,7,75,1,0,0.11907,1
92,2,7,35,1,0,0.0016158,1
93,1,21,18,1,1,0.82843,1
94,2,10,18,1,1,3.0632,0
95,2,7,75,0.068,1,1.585,1
96,2,10,18,0.068,0,5.6149,1
97,2,7,25,1,1,5.5804,0
98,1,15,35,0.5,1,0.35991,1
99,2,21,65,0.5,1,0.87842,1
100,1,4,75,0.5,1,14.8846,0
101,1,21,25,0.068,1,0.28149,1
102,1,21,90,1,1,0.91071,1
103,1,7,35,1,1,3.4234,0
104,2,10,65,1,1,1.2098,1
105,2,15,35,1,1,7.729,0
106,2,21,25,0.5,1,1.0708,0
107,2,4,75,0.5,1,0.36385,1
108,2,10,65,0.5,1,1.1948,1
109,1,10,18,1,1,0.55834,0
110,1,7,75,0.068,1,8.5126,0
111,1,10,18,0.068,0,0.002138,1
112,1,7,25,1,0,0.31773,1
113,1,21,65,0.5,0,0.54689,0
114,1,10,65,1,0,0.004133,1
115,1,15,35,1,0,0.11213,0
116,1,21,25,0.5,0,0.71861,0
117,1,4,75,0.5,1,1.8802,0
118,2,21,25,0.5,1,1.9696,0
119,2,4,35,0.068,1,3.9632,0
120,2,18,90,0.068,1,4.4145,1
121,2,15,18,1,0,4.1112,1
122,1,10,65,0.5,1,1.215,0
123,2,21,18,0.5,1,5.1626,0
124,2,21,25,1,1,3.2013,0
125,1,21,25,0.5,1,4.5643,1
126,2,18,75,0.5,1,0.31979,1
127,2,15,65,1,1,1.9869,1
128,2,18,90,1,1,0.62196,1
129,1,4,35,0.068,1,2.6592,0
130,1,18,90,0.068,1,14.3369,1
131,2,15,18,0.068,1,1.0063,0
132,1,15,18,1,1,3.3288,1
133,1,21,18,0.5,1,0.33506,1
134,1,21,25,1,1,3.0159,1
135,2,4,90,1,1,1.9319,1
136,2,18,75,0.068,1,4.7349,1
137,1,18,75,0.5,1,0.46263,1
138,1,15,65,1,1,1.1222,1
139,1,18,90,1,1,0.35472,1
140,2,21,90,0.068,1,1.7318,1
141,1,15,18,0.068,1,11.467,1
142,1,4,90,1,1,0.58613,0
143,2,4,75,0.5,1,1.9076,1
144,1,18,75,0.068,1,0.96573,1
145,2,10,35,1,1,22.8104,0
146,2,4,35,0.068,1,6.7717,0
147,2,7,25,1,0,0.002143,1
148,2,21,90,0.5,1,1.3702,1
149,2,18,18,0.5,1,0.90921,0
150,2,15,75,0.5,1,40.479,1
151,2,7,65,0.5,1,1.3052,1
152,1,21,90,0.068,1,9.4289,1
153,1,4,75,0.5,1,2.7545,0
154,2,4,35,0.5,0,1.4543,1
155,1,10,35,1,0,0.23336,1
156,1,4,35,0.068,0,2.6447,1
157,1,7,25,1,0,1.5153,1
158,1,21,90,0.5,1,0.76759,1
159,1,18,18,0.5,1,22.7821,1
160,1,15,75,0.5,1,10.4817,1
161,2,18,18,1,0,4.8805,1
162,2,18,25,1,0,4.2351,1
163,1,7,65,0.5,1,0.69993,0
164,1,4,35,0.5,1,1.357,0
165,2,18,90,0.5,1,7.9709,1
166,1,18,18,1,1,0.59493,1
167,1,18,25,1,1,14.1853,1
168,1,18,90,0.5,0,0.084606,0
169,2,15,65,0.068,1,0.0018227,1
170,2,21,25,1,0,0.27781,1
171,2,18,90,1,1,0.77115,1
172,1,15,65,0.068,1,2.7843,1
173,2,4,75,1,1,5.1742,1
174,1,21,25,1,1,0.65129,1
175,2,21,25,0.068,1,7.1038,0
176,2,7,90,1,1,0.76951,1
177,1,18,90,1,1,0.7479,1
178,1,4,75,1,1,3.3077,0
179,1,21,25,0.068,1,2.7266,1
180,2,4,90,0.5,0,0.067057,0
181,2,15,65,0.5,1,10.1848,1
182,1,7,90,1,0,0.030966,1
183,2,21,35,1,1,0.090113,0
184,2,7,25,0.068,1,0.54515,0
185,1,4,90,0.5,1,2.4018,0
186,1,15,65,0.5,1,4.5171,1
187,2,18,75,1,0,0.0015376,0
188,1,21,35,1,1,4.1527,1
189,2,15,65,0.5,1,0.0017217,1
190,1,7,25,0.068,1,0.84266,0
191,1,18,75,1,0,0.0016592,0
192,2,15,75,1,0,1.1508,0
193,1,15,65,0.5,0,0.16887,0
194,1,15,75,1,0,0.73875,0
195,2,4,75,1,0,0.0015815,0
196,2,18,90,0.5,0,0.0019561,0
197,2,4,90,0.068,1,0.0017802,1
198,1,4,75,1,0,1.2439,1
199,1,18,90,0.5,1,1.2782,1
200,1,4,90,0.068,1,0.001633,0
201,2,7,25,0.5,1,4.344,0
202,2,18,90,0.068,1,0.0015546,1
203,1,7,25,0.5,1,29.1491,0
204,2,10,18,1,1,10.7616,0
205,2,10,18,0.5,0,1.2769,1
206,1,18,90,0.068,1,2.8838,1
207,1,10,18,1,1,3.6221,0
208,2,7,90,0.5,1,1.1766,1
209,2,15,25,0.5,1,11.1141,0
210,1,10,18,0.5,1,0.33202,0
211,2,10,65,0.068,1,18.456,1
212,1,7,90,0.5,0,3.9188,1
213,1,15,25,0.5,0,0.1192,0
214,2,4,75,0.068,1,0.030873,1
215,1,10,65,0.068,1,0.0019026,0
216,1,4,75,0.068,1,1.4857,0
