Trial Number,TrialTypeN1S2,Nvalue,Svalue,time,KeyPressZsmallMgreater,ReactionTime,Accuracy
1,2,15,65,1,0,649.3886,0
2,2,10,18,0.5,0,0.43014,1
3,2,21,25,0.068,0,1.6228,1
4,1,15,65,1,1,2.1842,1
5,1,10,18,0.5,0,0.2546,1
6,1,21,25,0.068,1,0.60485,1
7,2,4,18,0.068,0,0.84382,1
8,2,15,25,0.068,1,0.24423,0
9,1,4,18,0.068,0,0.31882,1
10,1,15,25,0.068,0,0.48948,0
11,2,4,35,0.5,0,0.27082,1
12,2,18,75,0.5,1,0.0033398,1
13,1,4,35,0.5,0,0.37085,1
14,2,18,90,0.5,1,0.19659,1
15,1,18,75,0.5,1,0.0023448,1
16,2,4,35,1,0,0.10557,1
17,1,18,90,0.5,1,0.11949,1
18,1,4,35,1,0,0.0043906,1
19,1,21,35,0.5,1,0.60068,1
20,1,21,75,0.5,1,0.25069,1
21,2,21,35,0.5,0,0.23839,1
22,2,21,75,0.5,1,0.004553,1
23,1,10,35,0.068,0,111.6942,1
24,1,4,75,0.068,0,0.82541,1
25,1,18,90,0.5,1,0.21805,1
26,2,10,35,0.068,0,0.71633,1
27,2,4,75,0.068,0,75.2953,0
28,1,15,18,0.5,1,1.1476,1
29,1,7,65,1,0,0.3768,1
30,2,18,90,0.5,1,0.20589,1
31,1,4,18,0.068,0,0.2452,1
32,1,7,75,0.068,1,0.18714,0
33,1,10,35,1,1,0.0023588,0
34,1,21,25,1,1,0.10831,1
35,1,18,90,1,1,0.0030284,1
36,2,15,18,0.5,0,2.413,1
37,2,7,65,1,0,117.1822,0
38,2,4,18,0.068,0,64.7097,1
39,2,7,75,0.068,1,1.0293,1
40,2,10,35,1,0,0.23077,1
41,1,4,18,0.5,0,0.57857,1
42,2,21,25,1,0,0.15009,1
43,2,18,90,1,1,0.29133,1
44,1,21,75,0.5,1,0.30646,1
45,2,4,18,0.5,0,68.6949,1
46,2,21,75,0.5,1,0.7119,1
47,2,7,65,0.068,0,0.38464,0
48,1,7,65,0.068,1,0.19002,0
49,2,4,65,0.068,0,0.38475,0
50,2,7,65,0.5,0,0.32023,0
51,1,4,65,0.068,0,0.19637,1
52,2,21,90,0.5,1,0.19453,1
53,1,7,65,0.5,1,0.65648,0
54,1,21,90,0.5,1,0.0064895,1
55,1,15,18,0.068,1,0.20883,1
56,1,15,25,1,1,0.088309,1
57,1,10,18,1,1,0.2833,0
58,2,15,18,0.068,0,338.6629,1
59,2,15,25,1,0,0.14782,1
60,2,10,18,1,0,0.66967,1
61,1,4,75,1,0,0.23055,1
62,1,7,75,1,1,0.2658,0
63,1,21,75,1,1,0.26193,1
64,1,18,90,0.068,1,0.91171,1
65,2,4,75,1,0,0.0023223,0
66,1,18,75,1,1,0.12577,1
67,1,15,18,0.5,0,0.32275,0
68,2,7,75,1,0,0.10107,0
69,2,21,75,1,1,0.00308,1
70,2,18,90,0.068,1,0.49998,1
71,1,10,35,0.068,1,0.72647,0
72,2,18,75,1,1,0.19211,1
73,1,18,65,0.068,1,0.46606,1
74,2,15,18,0.5,0,1.3191,1
75,1,10,35,1,0,0.43395,1
76,1,7,75,0.5,1,0.15103,0
77,1,10,35,0.5,0,0.54398,1
78,2,10,35,0.068,1,0.22262,0
79,1,21,75,0.068,0,0.14531,0
80,2,18,65,0.068,1,0.23767,1
81,1,21,35,1,1,0.006972,1
82,2,10,35,1,0,0.21014,1
83,1,7,18,1,0,0.0017935,1
84,2,7,75,0.5,0,0.24892,0
85,2,10,35,0.5,0,0.0019533,1
86,2,21,75,0.068,1,0.91595,1
87,2,21,35,1,1,0.0016192,0
88,2,7,18,1,0,0.38889,1
89,2,21,25,1,1,0.0016941,0
90,1,21,25,1,1,0.50247,1
91,1,15,90,1,1,0.0018834,1
92,2,15,90,1,1,0.32526,1
93,2,4,18,1,0,0.1888,1
94,2,7,90,1,0,0.2673,0
95,2,18,25,0.068,0,0.9743,1
96,1,4,18,1,0,0.0023974,1
97,2,7,75,0.068,0,0.19757,0
98,2,7,18,0.5,0,0.0019262,1
99,2,15,90,0.5,0,2.3295,0
100,2,15,65,0.068,1,2.3972,1
101,1,7,90,1,1,0.24976,0
102,1,18,25,0.068,0,0.2436,0
103,2,21,25,0.5,1,0.10134,0
104,1,7,75,0.068,0,0.6705,1
105,2,18,90,0.068,1,0.14756,1
106,1,7,18,0.5,0,0.23682,1
107,1,15,90,0.5,1,0.74781,1
108,1,15,65,0.068,1,0.45326,1
109,2,4,35,0.068,0,0.51906,1
110,2,15,25,0.5,1,0.3193,0
111,2,10,65,1,0,0.3046,0
112,2,18,25,0.5,0,0.58501,1
113,1,21,25,0.5,1,0.49308,1
114,2,4,65,1,0,0.0027862,0
115,1,18,90,0.068,1,0.8351,1
116,2,4,18,1,0,0.7986,1
117,1,4,35,0.068,0,0.58179,1
118,2,4,25,1,0,0.0019291,1
119,2,18,65,0.5,1,0.26817,1
120,2,7,25,0.5,1,0.0022815,0
121,2,18,25,1,0,0.0023567,1
122,1,15,25,0.5,0,0.25836,0
123,1,10,65,1,1,0.10147,0
124,1,18,25,0.5,1,0.0018464,1
125,1,4,65,1,0,0.35801,1
126,1,4,18,1,0,0.5896,1
127,1,4,25,1,0,0.20279,1
128,2,4,65,0.5,0,0.38095,0
129,2,18,65,1,1,0.056833,1
130,2,7,25,0.068,1,1.2416,0
131,2,21,90,1,1,52.5291,1
132,1,18,65,0.5,1,0.71782,1
133,2,10,35,1,0,7.9844,1
134,1,7,25,0.5,0,1.5788,1
135,2,15,90,0.068,0,1.8464,0
136,1,18,25,1,1,1.5111,1
137,1,4,65,0.5,0,0.18501,1
138,2,15,90,0.068,1,1.4524,1
139,2,18,65,0.068,0,0.13108,0
140,2,21,75,0.068,1,3.7048,1
141,1,18,65,1,1,0.0576,1
142,2,15,18,0.068,0,1.9889,1
143,1,7,25,0.068,0,0.89887,1
144,2,21,90,0.068,1,0.50134,1
145,2,15,90,0.5,1,0.37606,1
146,1,21,90,1,1,2.6523,1
147,1,10,35,1,0,3.593,1
148,1,15,90,0.068,1,0.91882,1
149,1,15,90,0.068,1,0.084139,1
150,2,10,18,0.068,0,0.38552,1
151,2,10,35,0.068,1,0.56381,0
152,2,4,25,0.5,0,0.77415,1
153,1,18,65,0.068,1,0.97049,1
154,2,10,65,0.5,0,0.0016305,0
155,2,18,75,0.068,1,1.6145,1
156,2,18,65,0.5,1,0.77868,1
157,1,21,75,0.068,1,0.5449,1
158,1,15,18,0.068,0,0.44628,0
159,1,21,90,0.068,1,0.48583,1
160,2,21,25,0.5,0,0.10617,1
161,1,15,90,0.5,1,0.037711,1
162,1,10,18,0.068,1,2.7798,0
163,2,15,18,1,1,46.0058,0
164,1,10,35,0.068,0,0.53004,1
165,1,4,25,0.5,0,0.10029,1
166,2,15,18,1,1,0.0018602,0
167,1,10,65,0.5,1,0.22417,0
168,2,15,65,0.5,1,2.3188,1
169,2,10,35,1,1,0.87583,0
170,1,18,75,0.068,1,0.43591,1
171,1,18,65,0.5,1,0.079177,1
172,1,21,25,0.5,1,0.29188,1
173,1,15,18,1,1,0.63471,1
174,1,15,18,1,1,0.41286,1
175,2,15,90,1,1,0.0016336,1
176,1,15,65,0.5,1,0.050906,1
177,1,10,35,1,1,0.0020585,0
178,2,7,90,0.5,1,0.79385,1
179,2,4,75,0.5,0,1.5165,0
180,2,10,35,0.068,1,0.80956,0
181,1,15,90,1,1,0.079611,1
182,1,7,90,0.5,0,0.31641,1
183,1,4,75,0.5,0,0.050164,1
184,1,10,35,0.068,0,0.50335,1
185,2,18,90,1,1,0.05203,1
186,1,18,90,1,1,0.18201,1
187,2,21,25,0.068,1,0.98703,0
188,2,10,65,0.068,1,0.11413,1
189,2,7,18,0.068,0,0.26127,1
190,2,4,25,0.068,0,0.33077,1
191,2,7,25,1,0,0.11641,1
192,2,4,18,0.5,0,0.58701,1
193,1,21,25,0.068,0,0.013851,0
194,1,10,65,0.068,1,0.022708,0
195,1,7,18,0.068,1,0.0021001,0
196,2,21,75,1,1,0.026288,1
197,1,4,25,0.068,1,0.0016934,0
198,1,7,25,1,1,0.0030477,0
199,1,4,18,0.5,1,0.0021552,0
200,1,21,75,1,1,0.0017449,1
201,2,18,65,1,1,0.0020406,1
202,1,18,65,1,1,0.0021537,1
203,2,10,35,0.5,1,0.0016963,0
204,2,10,35,0.5,0,0.049889,1
205,1,10,35,0.5,0,0.0022298,1
206,1,10,35,0.5,1,0.0017537,0
207,2,10,35,0.5,0,0.7988,1
208,2,7,75,1,0,215.4522,0
209,2,21,35,0.068,1,0.71389,0
210,1,10,35,0.5,1,0.26191,0
211,1,7,75,1,1,0.072055,0
212,1,21,35,0.068,1,0.051461,1
213,1,7,75,0.5,0,1.7587,1
214,2,7,75,0.5,0,0.021699,0
215,1,7,90,0.068,0,0.089784,1
216,2,7,90,0.068,0,0.0018,0
