Trial Number,TrialTypeN1S2,Nvalue,Svalue,time,KeyPressZsmallMgreater,ReactionTime,Accuracy
1,2,18,18,1,0,6.9422,1
2,1,18,18,1,0,0.57312,0
3,1,18,75,0.068,1,3.0787,1
4,2,18,75,0.068,0,3.4303,0
5,2,10,35,0.068,1,2.4461,0
6,1,10,35,0.068,0,5.277,1
7,1,21,65,1,1,2.9231,1
8,1,7,18,0.068,0,4.3775,1
9,2,21,65,1,0,2.7176,0
10,2,7,18,0.068,0,1.0249,1
11,2,21,18,1,0,0.51046,1
12,1,21,18,1,1,4.2477,1
13,1,21,18,0.5,1,1.1704,1
14,1,21,35,0.068,1,1.4603,1
15,1,10,65,0.5,1,2.7717,0
16,1,18,75,0.068,0,2.9784,0
17,1,4,25,0.068,0,2.7529,1
18,1,7,75,0.5,0,2.3364,1
19,2,21,18,0.5,0,1.6842,1
20,2,21,35,0.068,0,1.7525,1
21,1,21,75,0.068,0,4.8822,0
22,1,18,75,1,1,2.7116,1
23,1,4,25,0.068,0,3.9715,1
24,2,10,65,0.5,1,3.3125,1
25,1,15,18,0.5,1,2.2929,1
26,1,10,65,0.5,0,2.4763,1
27,1,4,25,0.5,0,1.2558,1
28,1,10,35,0.5,1,1.011,0
29,2,18,75,0.068,0,4.0241,0
30,2,4,25,0.068,0,2.6992,1
31,2,7,75,0.5,0,2.5222,0
32,1,4,25,1,0,1.4898,1
33,2,21,75,0.068,0,4.8552,0
34,2,18,75,1,0,2.8225,0
35,2,4,25,0.068,1,5.9086,0
36,1,18,65,0.068,1,3.9644,1
37,1,15,18,0.068,1,2.3185,1
38,1,21,18,0.068,1,1.0173,1
39,1,10,65,0.068,1,2.5367,0
40,2,15,18,0.5,0,0.11446,1
41,2,10,65,0.5,0,1.5257,0
42,2,4,25,0.5,0,1.0407,1
43,2,10,35,0.5,1,1.6043,0
44,2,4,25,1,1,1.7772,0
45,2,18,65,0.068,0,3.0309,0
46,2,15,18,0.068,1,2.0734,0
47,1,15,35,0.5,0,2.1667,0
48,1,4,90,0.068,1,3.6392,0
49,2,21,18,0.068,1,2.4817,0
50,1,15,75,0.5,0,4.542,0
51,1,7,18,0.5,1,1.3236,0
52,1,4,90,1,1,2.2221,0
53,1,21,90,0.5,0,0.98634,0
54,2,10,65,0.068,1,3.5582,1
55,1,18,65,0.5,1,0.99622,1
56,1,10,35,0.5,0,1.5631,1
57,1,7,25,0.068,0,1.2014,1
58,1,18,35,1,0,1.2652,0
59,2,15,35,0.5,1,2.5505,0
60,1,7,25,1,1,5.724,0
61,1,15,35,1,1,2.5436,1
62,2,4,90,0.068,0,3.5661,0
63,1,4,25,1,1,1.6611,0
64,1,10,90,1,1,3.3201,0
65,1,10,65,0.068,1,3.5628,0
66,2,15,75,0.5,0,1.2507,0
67,1,4,25,1,0,3.0435,1
68,2,7,18,0.5,0,2.4714,1
69,2,4,90,1,0,2.0937,0
70,2,21,90,0.5,0,1.1353,0
71,2,18,65,0.5,0,1.0482,0
72,1,10,90,0.5,0,0.0003184,1
73,1,10,65,0.5,1,1.9028,0
74,2,10,35,0.5,0,3.0002,1
75,2,7,25,0.068,1,2.8995,0
76,2,18,35,1,0,1.1997,1
77,2,7,25,1,0,0.0008643,1
78,2,15,35,1,1,0.96553,0
79,2,4,25,1,0,5.8798,1
80,2,10,90,1,0,2.8654,0
81,2,10,65,0.068,0,1.9155,0
82,2,4,25,1,0,4.3124,1
83,2,10,90,0.5,1,2.5718,1
84,1,4,25,0.5,0,4.7855,1
85,1,18,65,0.5,1,1.6093,1
86,1,18,65,1,1,0.98188,1
87,1,21,25,0.068,1,1.8681,1
88,2,10,65,0.5,1,2.2984,1
89,1,21,75,1,0,0.4717,0
90,2,4,25,0.5,1,2.0501,0
91,1,21,90,1,0,2.1892,0
92,2,18,65,0.5,1,0.86584,1
93,2,18,65,1,0,0.97986,0
94,2,21,25,0.068,0,2.3129,1
95,1,10,35,0.068,0,2.1722,1
96,2,21,75,1,1,1.8562,1
97,1,21,65,0.5,1,0.89048,1
98,2,21,90,1,1,1.8925,1
99,1,18,35,0.5,0,1.8353,0
100,2,10,35,0.068,0,1.2956,1
101,2,21,65,0.5,0,4.3337,0
102,2,18,35,0.5,1,0.20156,0
103,2,15,35,0.068,1,1.5971,0
104,2,7,90,0.068,1,0.80439,1
105,2,15,75,0.068,0,0.65981,0
106,2,10,65,0.068,0,5.438,0
107,2,15,90,1,1,2.4204,1
108,1,15,35,0.068,0,4.195,0
109,2,7,18,0.068,0,2.1034,1
110,2,4,25,0.5,0,0.77437,1
111,1,7,90,0.068,0,3.0464,1
112,1,15,75,0.068,0,1.1877,0
113,1,10,65,0.068,1,1.9227,0
114,1,15,90,1,1,2.0561,1
115,2,15,90,0.068,0,1.9672,0
116,1,7,18,0.068,1,1.7254,0
117,2,15,18,0.068,0,0.058257,1
118,2,15,75,0.068,1,2.4078,1
119,2,18,65,0.068,1,3.0345,1
120,2,4,90,0.068,0,1.1641,0
121,1,4,25,0.5,0,1.0022,1
122,1,15,90,0.068,1,0.64647,1
123,1,15,18,0.068,0,0.57611,0
124,1,15,75,0.068,1,1.783,1
125,1,18,65,0.068,1,2.3253,1
126,2,21,25,1,0,2.0793,1
127,1,4,90,0.068,0,2.4104,1
128,1,21,25,1,1,1.9271,1
129,1,7,90,0.5,0,2.5627,1
130,2,7,90,0.5,0,1.9954,0
131,1,7,35,1,0,1.9224,1
132,1,4,25,0.068,0,1.5507,1
133,2,7,35,1,0,1.5987,1
134,2,4,25,0.068,0,1.7784,1
135,1,10,65,1,1,1.4425,0
136,2,10,65,1,1,2.9198,1
137,1,21,35,0.5,1,1.6599,1
138,1,10,35,1,1,1.1888,0
139,1,21,35,1,1,1.1322,1
140,1,15,75,1,1,0.72852,1
141,1,18,35,0.068,1,1.2638,1
142,1,7,18,0.5,0,3.1272,1
143,1,4,90,0.5,0,1.0295,1
144,2,21,35,0.5,0,1.8816,1
145,2,10,35,1,0,1.9889,1
146,2,21,35,1,0,2.0185,1
147,1,7,75,1,0,2.2242,1
148,1,10,35,1,0,1.541,1
149,1,21,75,0.5,1,2.3262,1
150,2,15,75,1,0,1.6825,0
151,2,18,35,0.068,0,2.5646,1
152,1,4,90,0.5,0,1.4922,1
153,1,4,25,1,0,1.04,1
154,2,7,18,0.5,0,2.9686,1
155,2,4,90,0.5,0,3.5273,0
156,1,7,35,0.068,0,2.0489,1
157,1,18,65,1,1,2.2202,1
158,1,15,18,1,1,2.2102,1
159,1,15,75,0.5,1,1.4149,1
160,1,7,90,1,0,2.1719,1
161,2,7,75,1,0,3.6613,0
162,1,4,25,0.068,1,1.491,0
163,2,10,35,1,1,4.8614,0
164,2,21,75,0.5,1,2.0893,1
165,1,21,65,0.068,1,1.9696,1
166,2,4,90,0.5,1,2.5275,1
167,2,4,25,1,0,2.0174,1
168,2,7,35,0.068,0,2.401,1
169,2,18,65,1,1,2.2118,1
170,2,15,18,1,0,1.1928,1
171,1,21,25,0.5,1,1.9143,1
172,1,18,75,0.5,1,1.4678,1
173,1,21,90,0.068,1,2.5349,1
174,2,15,75,0.5,1,1.101,1
175,2,7,90,1,0,1.84,0
176,2,4,25,0.068,0,1.7289,1
177,1,15,75,1,1,1.1838,1
178,2,21,65,0.068,1,0.86255,1
179,2,21,25,0.5,0,1.5719,1
180,2,18,75,0.5,1,3.6972,1
181,2,21,90,0.068,1,1.5721,1
182,1,15,18,1,1,1.4327,1
183,1,10,65,1,0,1.7716,1
184,2,15,75,1,1,3.2874,1
185,1,10,90,0.068,0,3.2161,1
186,2,15,18,1,0,3.465,1
187,1,4,90,1,0,2.0033,1
188,2,10,65,1,1,3.8589,1
189,2,10,90,0.068,1,3.2285,1
190,2,4,90,1,1,2.7146,1
191,1,7,25,0.5,0,2.525,1
192,1,10,65,1,0,3.5402,1
193,1,7,75,0.068,0,2.7614,1
194,1,18,18,0.5,1,3.7191,1
195,2,7,25,0.5,0,3.5664,1
196,2,10,65,1,0,10.3086,0
197,2,7,75,0.068,1,3.5599,1
198,1,7,18,1,0,2.5897,1
199,1,15,90,0.5,1,7.8231,1
200,2,18,18,0.5,0,2.6029,1
201,1,7,18,1,0,3.0176,1
202,2,7,18,1,0,2.5505,1
203,1,18,75,1,1,2.4963,1
204,2,15,90,0.5,1,2.5088,1
205,2,7,18,1,0,2.589,1
206,1,18,18,0.068,0,1.2589,0
207,1,4,25,0.5,0,1.3742,1
208,2,18,75,1,1,2.857,1
209,2,18,18,0.068,0,1.9665,1
210,2,4,25,0.5,0,2.3981,1
211,1,18,75,0.5,1,1.824,1
212,1,7,35,0.5,0,1.5882,1
213,2,18,75,0.5,0,2.0292,0
214,2,7,35,0.5,0,0.63091,1
215,2,15,18,0.5,0,1.1386,1
216,1,15,18,0.5,0,0.68558,0
