Trial Number,TrialTypeN1S2,Nvalue,Svalue,time,KeyPressZsmallMgreater,ReactionTime,Accuracy
1,1,21,75,0.5,0,5.2702,0
2,1,18,35,0.5,0,1.3716,0
3,2,21,75,0.5,0,25.0106,0
4,2,18,35,0.5,0,2.4466,1
5,2,18,75,0.068,1,1.6859,1
6,1,18,75,0.068,1,1.256,1
7,2,10,35,0.5,0,1.2244,1
8,1,10,35,0.5,0,5.5411,1
9,1,18,18,0.068,1,1.9353,1
10,2,18,18,0.068,0,1.5221,1
11,2,7,25,0.5,0,1.3098,1
12,2,15,25,0.068,0,1.2531,1
13,2,21,90,1,1,1.3846,1
14,1,7,25,0.5,0,8.0646,1
15,1,15,25,0.068,1,1.5467,1
16,2,4,35,0.068,0,1.5657,1
17,1,21,90,1,1,1.2778,1
18,1,4,35,0.068,0,1.3281,1
19,1,4,35,1,0,1.3433,1
20,1,15,35,0.068,1,1.3434,1
21,1,18,75,0.068,1,1.1387,1
22,2,4,35,1,0,1.0468,1
23,1,4,65,0.068,0,1.5909,1
24,1,7,25,0.068,0,1.2978,1
25,2,15,35,0.068,0,1.9817,1
26,1,15,90,0.068,0,4.6153,0
27,2,18,75,0.068,1,1.6249,1
28,1,7,25,0.5,0,1.1444,1
29,1,18,18,1,1,1.0293,1
30,2,4,65,0.068,0,3.3021,0
31,1,7,25,0.068,0,1.2922,1
32,2,7,25,0.068,0,1.1501,1
33,2,15,90,0.068,1,1.0647,1
34,1,4,75,0.5,0,0.85936,1
35,1,10,65,0.068,1,2.2171,0
36,2,7,25,0.5,0,0.73471,1
37,1,18,75,1,1,2.5012,1
38,1,15,35,0.5,1,0.78554,1
39,2,18,18,1,0,0.97981,1
40,1,10,65,1,0,0.97954,1
41,2,7,25,0.068,0,0.76736,1
42,1,18,35,1,1,0.80161,1
43,2,4,75,0.5,0,1.3713,0
44,2,10,65,0.068,0,1.5792,0
45,1,10,18,1,0,1.0711,1
46,2,18,75,1,1,1.0226,1
47,1,7,25,1,0,1.2413,1
48,2,15,35,0.5,0,1.0173,1
49,2,10,65,1,0,2.814,0
50,2,18,35,1,1,0.92058,0
51,2,10,18,1,0,0.69676,1
52,2,7,25,1,0,0.76401,1
53,2,21,90,1,1,0.62214,1
54,1,21,90,1,1,1.0083,1
55,2,15,75,1,1,1.7057,1
56,2,15,90,0.5,1,0.95626,1
57,1,15,75,1,1,1.9442,1
58,2,21,90,0.068,1,1.0788,1
59,1,15,90,0.5,1,1.3071,1
60,1,21,90,0.068,1,1.0036,1
61,1,4,75,0.068,0,0.96051,1
62,1,10,18,0.068,0,1.371,1
63,1,15,75,1,1,0.72205,1
64,1,4,35,1,0,0.52892,1
65,1,10,35,0.068,0,1.2096,1
66,2,4,75,0.068,0,1.658,0
67,2,10,18,0.068,0,1.2038,1
68,2,15,75,1,1,1.7151,1
69,1,18,18,0.5,1,1.8922,1
70,1,15,25,1,1,1.2784,1
71,2,4,35,1,0,0.78041,1
72,2,10,35,0.068,0,1.1249,1
73,1,7,25,1,0,1.2179,1
74,1,4,35,0.5,0,1.0746,1
75,2,18,18,0.5,0,0.9149,1
76,2,15,25,1,0,2.9007,1
77,1,10,65,1,0,0.82356,1
78,1,18,75,1,1,0.97932,1
79,1,15,75,0.068,1,0.93212,1
80,1,7,25,1,0,0.88847,1
81,1,4,18,0.068,0,1.2996,1
82,1,4,65,0.5,0,1.1394,1
83,1,10,35,0.5,0,2.4405,1
84,1,10,90,0.068,0,1.2695,1
85,1,18,75,0.5,1,0.9836,1
86,2,7,25,1,0,0.78455,1
87,1,21,65,0.068,1,0.92948,1
88,1,7,25,0.068,0,1.3297,1
89,2,4,35,0.5,0,0.88686,1
90,1,4,35,0.068,0,0.84226,1
91,2,10,65,1,0,1.0353,0
92,2,18,75,1,1,1.0567,1
93,2,15,75,0.068,1,0.80292,1
94,2,7,25,1,0,0.75037,1
95,2,4,18,0.068,0,1.098,1
96,2,4,65,0.5,0,0.9907,0
97,2,10,35,0.5,0,3.9936,1
98,1,18,18,1,1,0.67268,1
99,2,10,90,0.068,1,0.92506,1
100,2,18,75,0.5,1,0.74775,1
101,1,10,35,0.068,0,1.5204,1
102,1,21,65,1,1,1.1752,1
103,2,21,65,0.068,1,1.1751,1
104,2,7,25,0.068,0,0.99832,1
105,1,10,35,1,0,1.4555,1
106,1,15,35,1,1,0.77036,1
107,1,18,18,0.5,1,0.71841,1
108,2,4,35,0.068,0,1.32,1
109,1,4,65,1,0,0.90576,1
110,2,18,18,1,0,0.73055,1
111,1,10,90,0.5,0,1.3994,1
112,1,10,65,0.5,0,0.93153,1
113,2,10,35,0.068,1,5.7573,0
114,1,21,90,1,1,0.98657,1
115,1,15,75,0.5,1,1.0499,1
116,1,21,90,0.068,1,1.4899,1
117,2,21,65,1,1,1.0231,1
118,2,10,35,1,0,0.59459,1
119,2,15,35,1,1,3.9176,0
120,2,18,18,0.5,0,2.4773,1
121,2,4,65,1,0,1.1936,0
122,1,4,65,0.068,0,1.5798,1
123,1,7,90,1,0,3.4268,1
124,1,7,25,0.5,0,4.0205,1
125,2,10,90,0.5,1,1.9538,1
126,1,21,65,0.5,1,0.91366,1
127,1,10,65,0.068,0,0.87086,1
128,1,7,90,0.5,0,1.0015,1
129,1,7,25,0.5,0,2.0645,1
130,1,18,35,0.068,1,0.8407,1
131,1,4,65,1,0,2.7483,1
132,2,10,65,0.5,1,1.2765,1
133,1,7,25,0.5,0,1.2531,1
134,2,21,90,1,1,0.81764,1
135,2,15,75,0.5,1,1.5246,1
136,1,21,75,0.068,1,1.3159,1
137,2,21,90,0.068,1,0.78865,1
138,1,21,75,1,1,0.83237,1
139,2,4,65,0.068,0,1.4603,0
140,1,10,90,1,0,2.4014,1
141,2,7,90,1,0,3.1335,0
142,2,7,25,0.5,0,1.3401,1
143,2,21,65,0.5,1,1.0428,1
144,2,10,65,0.068,0,1.8868,0
145,2,7,90,0.5,0,4.2036,0
146,1,7,25,1,0,0.96258,1
147,1,15,75,0.068,1,3.1106,1
148,1,18,18,1,1,0.69852,1
149,2,7,25,0.5,0,1.2388,1
150,2,18,35,0.068,0,1.4771,1
151,1,18,75,0.5,1,1.1123,1
152,1,15,25,0.5,1,2.1635,1
153,1,4,18,0.5,1,0.97757,0
154,1,21,90,0.5,1,0.98127,1
155,1,10,65,0.5,0,3.2647,1
156,2,4,65,1,0,1.595,0
157,2,7,25,0.5,0,4.6246,1
158,2,21,75,0.068,1,5.6825,1
159,1,21,65,1,1,0.77549,1
160,2,21,75,1,1,2.3681,1
161,1,15,75,0.5,1,1.8406,1
162,2,10,90,1,1,1.1426,1
163,2,7,25,1,0,1.0269,1
164,1,21,90,0.5,1,0.77151,1
165,1,21,90,0.5,1,0.82831,1
166,2,15,75,0.068,0,0.84104,0
167,1,15,18,0.5,1,1.8633,1
168,1,7,25,0.068,1,2.3427,0
169,2,18,18,1,0,1.2096,1
170,1,4,35,0.5,0,2.3043,1
171,1,21,65,0.5,1,0.88451,1
172,1,10,18,0.5,0,1.6224,1
173,2,18,75,0.5,0,2.9699,0
174,1,18,18,0.5,1,1.0908,1
175,2,15,25,0.5,0,8.4316,1
176,2,4,18,0.5,0,1.5223,1
177,2,21,90,0.5,1,0.86642,1
178,2,10,65,0.5,0,1.5076,0
179,1,4,18,1,0,1.4616,1
180,2,21,65,1,0,7.7701,0
181,2,15,75,0.5,1,1.7919,1
182,2,21,90,0.5,1,1.6399,1
183,1,21,90,0.068,0,3.4059,0
184,2,21,90,0.5,1,5.1921,1
185,2,15,18,0.5,0,6.8085,1
186,2,7,25,0.068,0,2.8316,1
187,1,18,18,0.068,1,1.0671,1
188,1,15,90,1,1,4.4381,1
189,2,4,35,0.5,0,18.8981,1
190,2,21,65,0.5,1,0.93763,1
191,1,18,18,0.068,1,2.3371,1
192,2,10,18,0.5,0,2.4205,1
193,1,15,18,0.068,0,1.7776,0
194,1,15,18,1,0,5.0546,0
195,2,18,18,0.5,0,1.1575,1
196,1,4,75,1,0,0.95638,1
197,2,4,18,1,0,8.8647,1
198,1,4,65,0.5,0,1.2266,1
199,2,21,90,0.068,1,0.88089,1
200,2,18,18,0.068,0,0.94836,1
201,1,10,35,1,0,0.5711,1
202,2,15,90,1,1,0.92243,1
203,2,18,18,0.068,0,13.6383,1
204,2,15,18,0.068,0,1.1617,1
205,2,15,18,1,0,1.0341,1
206,2,4,75,1,0,8.425,0
207,1,21,65,0.068,1,1.0699,1
208,1,7,25,0.068,0,1.0665,1
209,1,7,90,0.068,0,0.73046,1
210,2,4,65,0.5,0,2.0227,0
211,2,10,35,1,0,0.93209,1
212,2,21,65,0.068,1,0.7807,1
213,2,7,25,0.068,0,1.4428,1
214,2,7,90,0.068,1,1.0365,1
215,1,7,25,1,0,0.89953,1
216,2,7,25,1,0,0.61084,1
