Trial Number,TrialTypeN1S2,Nvalue,Svalue,time,KeyPressZsmallMgreater,ReactionTime,Accuracy
1,2,15,75,0.5,1,4.1118,1
2,2,15,90,0.5,1,1.5711,1
3,1,15,75,0.5,1,6.5365,1
4,1,15,90,0.5,1,3.0692,1
5,2,7,25,0.5,0,1.6272,1
6,1,7,25,0.5,0,1.5451,1
7,1,10,18,0.5,0,1.9262,1
8,1,10,65,0.068,0,1.9331,1
9,1,4,25,1,0,0.82291,1
10,1,10,25,1,1,5.9672,0
11,2,10,18,0.5,0,1.7835,1
12,1,7,75,0.5,0,1.1002,1
13,1,4,75,0.5,0,0.963,1
14,2,10,65,0.068,1,1.6351,1
15,1,15,35,0.068,1,1.5079,1
16,1,4,35,1,0,0.83336,1
17,2,4,25,1,0,1.5055,1
18,2,10,25,1,0,1.2378,1
19,2,7,75,0.5,1,1.1729,1
20,2,4,75,0.5,1,1.2212,1
21,1,15,90,0.068,0,2.7373,0
22,1,4,90,0.068,0,0.95669,1
23,2,15,35,0.068,1,1.1793,0
24,2,4,35,1,0,1.0946,1
25,2,15,90,0.068,1,1.4513,1
26,2,4,90,0.068,0,1.3317,0
27,2,4,25,0.5,1,1.2255,0
28,2,21,65,0.5,0,1.9722,0
29,2,7,75,0.068,1,2.4805,1
30,1,4,25,0.5,0,0.84914,1
31,2,4,75,0.068,1,2.339,1
32,2,21,25,0.068,0,1.2765,1
33,1,21,65,0.5,0,0.81444,0
34,2,4,90,0.5,1,1.3252,1
35,1,7,75,0.068,0,1.552,1
36,1,4,75,0.068,0,0.79333,1
37,1,21,25,0.068,1,1.1605,1
38,1,4,90,0.5,0,1.1936,1
39,2,18,18,0.068,0,1.6449,1
40,1,18,18,0.068,0,1.1951,0
41,2,4,75,1,1,1.1872,1
42,1,4,75,1,0,1.472,1
43,2,21,35,0.068,0,1.6298,1
44,1,21,35,0.068,1,1.256,1
45,1,18,65,0.068,1,2.1699,1
46,2,18,65,0.068,1,1.3694,1
47,2,18,35,0.5,0,3.2783,1
48,1,18,35,0.5,1,0.84993,1
49,2,15,90,1,1,1.035,1
50,2,4,35,0.068,0,1.6525,1
51,1,15,90,1,1,2.3811,1
52,1,4,35,0.068,0,1.509,1
53,2,10,25,0.068,0,1.7466,1
54,1,10,25,0.068,0,2.2645,1
55,1,21,90,0.5,1,1.4913,1
56,2,21,90,0.5,1,0.90577,1
57,2,21,25,0.068,0,1.2152,1
58,2,4,18,1,0,1.3274,1
59,1,21,25,0.068,1,1.4919,1
60,2,18,18,0.5,0,1.6555,1
61,2,7,75,1,1,1.2142,1
62,1,4,18,1,0,0.98675,1
63,2,7,65,0.068,1,3.1606,1
64,2,10,90,0.5,1,0.62222,1
65,2,7,18,0.5,0,0.85653,1
66,2,15,35,0.5,0,1.2951,1
67,1,18,18,0.5,1,0.62061,1
68,2,15,90,0.068,1,0.71679,1
69,2,15,90,1,1,0.81218,1
70,1,7,75,1,0,0.86967,1
71,1,7,65,0.068,0,0.88251,1
72,2,18,75,0.5,1,0.45923,1
73,2,15,75,0.068,1,0.73282,1
74,1,10,90,0.5,0,1.2935,1
75,1,7,18,0.5,0,0.96051,1
76,2,4,25,0.068,0,1.4019,1
77,1,15,35,0.5,1,1.0861,1
78,1,15,90,0.068,1,1.8393,1
79,1,15,90,1,1,1.7536,1
80,1,18,75,0.5,1,1.6089,1
81,2,10,65,0.068,0,1.1624,0
82,2,15,75,1,0,3.9315,0
83,1,15,75,0.068,1,1.7158,1
84,2,10,25,0.068,0,1.696,1
85,1,4,25,0.068,0,1.2809,1
86,2,10,18,0.068,0,1.2048,1
87,2,4,35,0.5,0,1.0199,1
88,2,15,75,0.068,1,1.1342,1
89,2,4,90,1,1,1.1154,1
90,2,15,35,0.068,0,2.6078,1
91,2,10,65,1,0,3.1998,0
92,1,10,65,0.068,0,1.8596,1
93,2,15,35,1,0,1.0253,1
94,1,15,75,1,0,2.8461,0
95,1,10,25,0.068,0,3.1197,1
96,2,21,35,0.5,0,0.99769,1
97,2,15,35,0.5,0,1.4829,1
98,1,10,18,0.068,0,1.8487,1
99,1,4,35,0.5,0,1.0415,1
100,2,21,65,0.068,1,1.0749,1
101,1,15,75,0.068,0,3.7445,0
102,1,4,90,1,0,0.83858,1
103,2,10,65,1,1,0.8672,1
104,1,15,35,0.068,1,3.549,1
105,2,18,90,0.5,1,0.79963,1
106,2,4,18,0.5,0,1.7273,1
107,1,10,65,1,0,1.7072,1
108,2,15,75,0.5,1,0.71455,1
109,2,18,90,0.068,1,0.94624,1
110,2,21,25,0.5,0,1.1465,1
111,2,18,75,0.068,1,2.1581,1
112,1,15,35,1,0,9.2727,0
113,2,10,90,0.068,1,0.82234,1
114,2,10,25,0.5,0,0.90085,1
115,2,15,75,1,1,0.54666,1
116,1,21,35,0.5,1,0.71099,1
117,1,15,35,0.5,0,2.5507,0
118,2,7,25,1,0,0.95168,1
119,1,21,65,0.068,1,1.6014,1
120,2,4,18,0.068,0,1.3799,1
121,1,10,65,1,0,1.4236,1
122,2,21,25,1,0,1.4806,1
123,1,18,90,0.5,1,2.3138,1
124,2,7,75,0.5,0,2.4742,0
125,2,7,18,1,0,1.1769,1
126,2,21,90,0.068,1,1.1251,1
127,1,4,18,0.5,0,0.76782,1
128,1,15,75,0.5,0,2.495,0
129,2,21,90,1,1,0.61887,1
130,1,18,90,0.068,0,3.8181,0
131,1,21,25,0.5,1,0.79358,1
132,1,18,75,0.068,0,3.0612,0
133,2,15,90,0.5,1,0.55119,1
134,1,10,90,0.068,0,1.2483,1
135,1,10,25,0.5,0,1.1115,1
136,2,7,75,1,1,1.0307,1
137,2,21,65,1,1,1.2295,1
138,1,15,75,1,1,1.9171,1
139,1,7,25,1,0,0.96336,1
140,1,4,18,0.068,0,0.92868,1
141,1,21,25,1,1,1.0117,1
142,1,7,75,0.5,0,1.0975,1
143,2,18,75,1,1,0.48246,1
144,1,7,18,1,0,0.4016,1
145,2,7,18,0.068,0,1.2369,1
146,1,21,90,0.068,1,4.2881,1
147,1,21,90,1,1,1.2267,1
148,2,18,35,0.068,0,1.2618,1
149,2,18,18,0.068,0,4.9113,1
150,1,15,90,0.5,0,1.3491,0
151,2,7,25,0.068,0,0.75195,1
152,1,7,75,1,0,0.81937,1
153,1,21,65,1,0,0.70318,0
154,1,18,75,1,1,1.397,1
155,1,7,18,0.068,0,1.2608,1
156,1,18,35,0.068,1,0.98427,1
157,2,10,65,0.5,1,1.896,1
158,2,7,75,0.068,1,1.5609,1
159,2,7,65,0.5,1,1.2702,1
160,2,7,18,0.068,0,1.2664,1
161,2,10,25,1,0,1.1594,1
162,2,4,35,1,0,0.94647,1
163,1,18,18,0.068,1,1.0939,1
164,2,10,90,1,1,1.3379,1
165,1,7,25,0.068,0,0.88843,1
166,1,10,65,0.5,0,1.0583,1
167,1,7,75,0.068,0,1.6908,1
168,2,18,18,1,0,1.9701,1
169,2,21,25,0.5,0,1.0042,1
170,2,21,65,1,1,0.77966,1
171,1,7,65,0.5,0,0.9854,1
172,1,7,18,0.068,0,1.8747,1
173,1,10,25,1,0,1.1495,1
174,1,4,35,1,0,0.88082,1
175,1,10,90,1,0,1.0329,1
176,2,15,35,1,1,0.56173,0
177,2,18,65,0.5,1,1.0552,1
178,2,18,35,1,0,1.5999,1
179,1,18,18,1,1,0.6222,1
180,2,10,65,0.5,1,0.62813,1
181,1,21,25,0.5,1,0.75629,1
182,2,10,25,0.5,0,1.7004,1
183,1,21,65,1,1,1.0271,1
184,1,15,35,1,1,0.71017,1
185,2,18,18,1,0,0.90212,1
186,1,18,65,0.5,1,3.0192,1
187,1,18,35,1,1,0.91278,1
188,2,18,65,1,1,0.54878,1
189,2,7,18,1,0,1.0026,1
190,1,10,65,0.5,0,0.8511,1
191,1,10,25,0.5,0,1.2936,1
192,1,18,18,1,1,0.62505,1
193,1,18,65,1,1,2.3763,1
194,2,21,35,1,0,0.98258,1
195,2,18,18,0.5,0,0.91749,1
196,2,18,90,1,1,0.72254,1
197,1,7,18,1,0,1.0866,1
198,1,21,35,1,1,0.79737,1
199,2,4,35,0.5,0,1.2032,1
200,2,21,25,1,0,1.2073,1
201,2,21,65,0.5,1,0.61676,1
202,2,4,35,0.068,0,1.2749,1
203,2,7,65,1,1,1.6378,1
204,1,18,18,0.5,1,4.3075,1
205,1,18,90,1,1,1.036,1
206,1,4,35,0.5,0,1.1078,1
207,2,21,65,0.068,1,1.4403,1
208,1,21,25,1,1,2.2255,1
209,1,21,65,0.5,1,1.0115,1
210,1,4,35,0.068,0,1.7651,1
211,2,10,18,1,0,1.7083,1
212,1,7,65,1,0,2.3287,1
213,1,21,65,0.068,1,1.1317,1
214,1,10,18,1,0,1.1424,1
215,1,7,18,0.5,0,1.0246,1
216,2,7,18,0.5,0,2.2148,1
