Trial Number,TrialTypeN1S2,Nvalue,Svalue,time,KeyPressZsmallMgreater,ReactionTime,Accuracy
1,1,10,18,0.068,1,1.2697,0
2,2,10,18,0.068,0,1.0822,1
3,2,15,25,1,0,1.42,1
4,1,15,25,1,1,1.6231,1
5,2,15,18,0.068,0,1.0598,1
6,1,15,18,0.068,0,1.9167,0
7,2,18,25,0.5,1,0.89654,0
8,1,18,25,0.5,1,1.4857,1
9,1,7,75,1,0,1.007,1
10,2,7,75,1,1,0.98549,1
11,2,18,65,0.5,1,1.1556,1
12,2,15,25,0.5,0,1.5162,1
13,2,21,75,1,1,0.83436,1
14,1,18,65,0.5,1,1.0266,1
15,2,4,90,0.068,1,0.69404,1
16,2,18,90,0.068,1,0.56084,1
17,1,15,25,0.5,1,0.64754,1
18,1,21,75,1,1,0.76848,1
19,2,4,90,0.5,0,0.78365,0
20,1,4,90,0.068,0,1.395,1
21,2,7,65,0.068,1,0.64009,1
22,1,18,90,0.068,0,1.075,0
23,2,4,35,0.5,0,1.1187,1
24,2,4,65,0.068,1,0.69667,1
25,1,4,90,0.5,0,1.1181,1
26,1,7,65,0.068,0,0.57728,1
27,2,15,90,1,1,0.39549,1
28,1,4,35,0.5,0,0.83021,1
29,1,4,65,0.068,0,0.57506,1
30,1,15,90,1,1,0.74729,1
31,2,21,75,0.5,0,0.73118,0
32,2,21,18,1,0,0.81469,1
33,1,21,75,0.5,1,0.69292,1
34,1,21,18,1,1,0.63568,1
35,2,15,75,0.068,1,0.76337,1
36,1,15,75,0.068,0,0.96133,0
37,1,18,25,0.068,1,0.72099,1
38,2,18,25,0.068,1,0.629,0
39,1,4,65,0.5,0,0.85113,1
40,2,4,65,0.5,1,0.99708,1
41,1,18,90,0.5,0,1.1655,0
42,1,7,25,1,0,0.98416,1
43,2,18,90,0.5,1,0.70868,1
44,1,10,65,0.068,0,0.69903,1
45,1,10,25,0.5,0,1.0097,1
46,2,7,25,1,0,0.65937,1
47,1,4,35,0.068,0,0.71573,1
48,2,10,65,0.068,1,0.82479,1
49,1,4,90,0.5,0,0.69732,1
50,1,10,65,1,0,0.71897,1
51,2,10,25,0.5,0,0.8315,1
52,2,4,35,0.068,0,0.7137,1
53,2,4,90,0.5,1,0.85567,1
54,1,15,65,0.5,1,0.79836,1
55,1,15,18,1,1,0.757,1
56,2,10,65,1,1,0.91967,1
57,2,15,65,0.5,1,0.55723,1
58,1,21,75,1,1,0.64982,1
59,1,4,90,1,0,0.65591,1
60,1,7,75,0.068,0,1.1897,1
61,1,15,35,1,1,0.80092,1
62,2,15,18,1,0,0.76051,1
63,2,21,75,1,1,0.76325,1
64,1,4,90,1,0,0.70215,1
65,2,4,90,1,1,0.56694,1
66,2,7,75,0.068,1,0.87661,1
67,2,15,35,1,1,0.56303,0
68,1,4,65,1,0,0.4855,1
69,1,21,35,0.068,1,0.68676,1
70,2,4,90,1,1,0.74523,1
71,1,21,18,0.5,1,0.52813,1
72,2,4,65,1,0,0.62044,0
73,2,21,35,0.068,0,1.0039,1
74,1,4,90,0.068,0,0.62625,1
75,2,21,18,0.5,0,0.74244,1
76,1,21,75,0.068,1,1.0788,1
77,2,4,90,0.068,1,0.64203,1
78,2,21,75,0.068,1,0.67377,1
79,1,7,18,0.068,0,0.66059,1
80,2,7,18,0.068,0,0.61885,1
81,1,15,90,0.5,1,0.97254,1
82,1,7,25,0.5,0,0.90748,1
83,1,4,90,0.068,0,0.72871,1
84,1,10,25,0.068,0,0.63845,1
85,2,15,90,0.5,1,0.49883,1
86,2,7,25,0.5,0,0.63415,1
87,1,7,75,0.5,0,0.72354,1
88,2,4,90,0.068,1,0.70045,1
89,1,18,90,0.5,1,1.584,1
90,1,7,25,0.068,0,0.61872,1
91,2,10,25,0.068,1,0.96403,0
92,1,15,75,0.5,0,0.71598,0
93,2,7,75,0.5,1,0.57639,1
94,2,18,90,0.5,1,0.63819,1
95,1,4,65,0.5,0,0.56087,1
96,1,18,18,0.068,1,0.95101,1
97,1,4,65,1,0,0.64267,1
98,2,7,25,0.068,0,0.70544,1
99,1,15,65,0.068,0,0.64211,0
100,2,15,75,0.5,1,0.60248,1
101,2,4,65,0.5,1,0.71336,1
102,2,18,18,0.068,0,1.2396,1
103,2,4,65,1,1,0.67222,1
104,2,15,65,0.068,1,1.0743,1
105,2,21,75,0.068,1,0.57167,1
106,2,7,65,0.5,1,0.71529,1
107,1,21,75,0.068,1,0.99371,1
108,1,7,65,0.5,0,0.77703,1
109,2,10,35,0.068,1,0.85366,0
110,1,10,35,0.068,0,0.86225,1
111,2,7,18,0.5,0,0.80702,1
112,2,18,65,0.068,1,0.64478,1
113,2,18,90,1,1,0.54058,1
114,2,15,25,0.068,1,0.77163,0
115,1,7,18,0.5,0,0.99574,1
116,1,18,65,0.068,0,1.0445,0
117,2,10,18,0.5,0,0.82495,1
118,2,18,65,1,0,0.76396,0
119,2,10,25,0.5,0,0.71183,1
120,2,10,25,1,0,0.66134,1
121,1,18,90,1,1,0.86654,1
122,1,15,25,0.068,0,0.82305,0
123,1,10,18,0.5,0,0.8423,1
124,1,18,65,1,1,0.87701,1
125,2,15,90,0.068,1,0.63535,1
126,1,10,25,0.5,0,0.71125,1
127,2,15,75,1,1,0.57397,1
128,1,10,25,1,0,0.0061603,1
129,1,15,90,0.068,1,0.98688,1
130,1,15,75,1,1,1.1098,1
131,1,10,35,1,0,0.80235,1
132,1,4,35,1,0,0.6431,1
133,2,10,35,1,0,1.1904,1
134,2,4,35,1,0,0.95269,1
135,1,7,65,1,0,0.69299,1
136,2,7,65,1,0,0.77509,0
137,1,10,35,0.5,0,0.63026,1
138,1,10,35,0.068,0,1.0197,1
139,2,10,35,0.5,0,0.6852,1
140,1,7,75,1,0,0.67933,1
141,1,21,75,1,0,0.73953,0
142,2,10,35,0.068,0,0.69917,1
143,1,21,75,0.5,1,0.84034,1
144,1,7,25,1,0,0.75671,1
145,1,18,18,1,1,0.60657,1
146,1,21,35,1,1,0.65806,1
147,2,7,75,1,1,0.77052,1
148,1,15,35,0.5,1,0.80861,1
149,1,4,65,0.068,0,0.82051,1
150,2,21,75,1,1,0.60831,1
151,2,21,75,0.5,1,0.63994,1
152,2,7,25,1,0,0.71238,1
153,2,18,18,1,0,0.99672,1
154,1,4,90,0.5,0,0.8224,1
155,2,21,35,1,0,0.7941,1
156,2,15,35,0.5,0,0.65864,1
157,2,4,65,0.068,1,0.6986,1
158,2,4,90,0.5,0,0.6512,0
159,1,4,90,1,0,0.92268,1
160,1,21,75,0.068,0,0.81945,0
161,1,10,35,1,0,0.7798,1
162,2,4,90,1,1,0.71935,1
163,2,21,75,0.068,1,0.81776,1
164,1,21,35,1,1,0.53648,1
165,2,10,35,1,0,1.0451,1
166,2,21,35,1,0,0.74497,1
167,2,10,35,0.5,0,0.6844,1
168,2,10,25,1,0,0.92177,1
169,2,18,18,1,0,0.76112,1
170,2,10,18,1,0,0.62225,1
171,2,18,90,0.068,0,0.62462,0
172,1,10,35,0.5,0,1.031,1
173,1,10,25,1,1,0.8769,0
174,2,21,18,0.068,0,0.66191,1
175,1,18,18,1,1,0.68981,1
176,2,21,35,0.068,0,0.79418,1
177,1,10,18,1,0,0.96446,1
178,2,15,65,1,1,0.64083,1
179,1,18,90,0.068,1,0.73945,1
180,1,21,18,0.068,0,0.57591,0
181,2,15,18,0.5,0,0.67775,1
182,2,7,25,0.5,0,0.73023,1
183,1,21,35,0.068,1,0.82852,1
184,2,18,90,1,1,0.55373,1
185,2,7,25,0.068,0,0.53419,1
186,1,15,65,1,1,0.83766,1
187,2,18,25,1,0,0.67972,1
188,1,15,18,0.5,1,0.57636,1
189,1,7,25,0.5,0,0.72767,1
190,2,7,75,0.5,1,0.61471,1
191,2,18,18,0.5,0,0.6587,1
192,2,7,75,0.068,1,0.71208,1
193,2,21,35,0.5,0,0.70094,1
194,1,18,90,1,0,0.58946,0
195,1,7,25,0.068,0,0.75467,1
196,1,18,25,1,1,0.46079,1
197,1,7,75,0.5,0,0.74069,1
198,1,18,18,0.5,1,0.52353,1
199,1,7,75,0.068,0,0.63828,1
200,1,21,35,0.5,1,0.3935,1
201,2,21,75,0.5,0,0.50465,0
202,2,10,25,0.068,1,0.78696,0
203,2,18,18,0.068,0,0.8114,1
204,1,21,75,0.5,1,0.86648,1
205,2,7,18,1,0,0.66699,1
206,2,15,35,0.068,0,0.7132,1
207,1,10,25,0.068,0,0.72092,1
208,1,18,18,0.068,0,0.72862,0
209,2,10,65,0.5,1,0.44098,1
210,2,18,18,0.5,1,0.65773,0
211,1,7,18,1,0,0.71532,1
212,2,21,35,0.5,0,0.72133,1
213,1,15,35,0.068,1,0.95932,1
214,1,10,65,0.5,0,0.65603,1
215,1,18,18,0.5,1,0.40127,1
216,1,21,35,0.5,1,0.44629,1
