Trial Number,TrialTypeN1S2,Nvalue,Svalue,time,KeyPressZsmallMgreater,ReactionTime,Accuracy
1,1,7,35,0.5,0,1.3013,1
2,2,7,35,0.5,0,0.19761,1
3,2,7,35,1,0,4.2289,1
4,1,7,35,1,0,3.7703,1
5,1,4,25,1,0,1.3124,1
6,1,18,75,0.068,0,1.5575,0
7,1,4,18,0.5,0,1.0531,1
8,1,21,18,0.068,1,1.2715,1
9,1,18,25,0.5,1,0.0059833,1
10,1,18,18,1,1,2.2702,1
11,1,10,65,0.5,1,0.006147,0
12,1,15,35,1,0,3.3183,0
13,2,4,25,1,0,1.4564,1
14,2,18,75,0.068,1,2.1257,1
15,2,4,18,0.5,0,0.3116,1
16,2,21,18,0.068,0,0.97056,1
17,1,21,90,1,0,1.27,0
18,2,18,25,0.5,0,1.3883,1
19,2,18,18,1,0,1.1355,1
20,1,21,18,1,1,0.69891,1
21,1,21,90,0.068,1,1.3461,1
22,1,15,35,0.068,1,1.1316,1
23,2,10,65,0.5,1,1.0785,1
24,2,15,35,1,0,0.94721,1
25,2,21,90,1,1,0.79673,1
26,2,21,18,1,0,0.9933,1
27,2,21,90,0.068,0,2.9809,0
28,2,15,35,0.068,0,1.308,1
29,2,7,35,0.5,1,1.1238,0
30,1,7,35,0.5,0,1.0885,1
31,2,15,35,0.5,1,0.87203,0
32,1,15,35,0.5,1,0.56864,1
33,2,4,25,1,0,0.80017,1
34,2,10,65,0.5,0,1.1043,0
35,2,21,18,0.068,0,1.3671,1
36,2,15,75,1,1,0.71702,1
37,2,7,35,1,0,0.72661,1
38,1,4,25,1,0,0.71561,1
39,1,10,65,0.5,1,0.63498,0
40,1,21,18,0.068,1,1.7624,1
41,1,15,75,1,1,0.58825,1
42,1,7,35,1,0,0.74149,1
43,1,10,65,1,1,0.76814,0
44,2,10,65,1,1,0.71719,1
45,2,18,65,0.5,1,0.7905,1
46,2,18,18,1,0,0.8975,1
47,1,18,65,0.5,1,1.2628,1
48,1,18,18,1,0,0.0055141,0
49,2,4,90,0.5,1,0.69463,1
50,1,4,90,0.5,0,0.935,1
51,1,7,75,0.5,0,1.1384,1
52,1,4,90,1,1,1.1268,0
53,1,10,25,0.5,0,1.113,1
54,2,7,75,0.5,1,0.75215,1
55,2,4,90,1,1,0.62291,1
56,2,10,25,0.5,0,0.82583,1
57,1,15,75,0.5,1,0.96208,1
58,1,4,25,0.5,0,0.88528,1
59,1,21,90,0.5,0,0.79474,0
60,1,21,90,0.5,1,0.90142,1
61,1,18,18,0.5,1,0.75914,1
62,1,4,25,0.068,0,1.187,1
63,2,15,75,0.5,1,0.61158,1
64,2,4,25,0.5,0,0.91653,1
65,2,21,90,0.5,1,0.53676,1
66,2,21,90,0.5,1,0.97836,1
67,1,4,90,0.068,0,0.93354,1
68,1,18,18,0.068,0,0.709,0
69,1,21,75,0.068,1,0.8025,1
70,1,4,18,1,0,0.95205,1
71,1,15,90,0.5,1,0.95103,1
72,1,7,35,0.068,0,0.93175,1
73,1,15,90,0.068,1,1.0114,1
74,2,18,18,0.5,0,1.1747,1
75,2,4,25,0.068,0,1.2345,1
76,1,10,65,0.5,1,1.1077,0
77,1,7,65,0.068,1,1.5396,0
78,1,10,25,1,1,1.0449,0
79,2,4,90,0.068,0,1.5382,0
80,2,18,18,0.068,0,1.9157,1
81,2,21,75,0.068,1,1.0936,1
82,1,18,65,0.068,1,0.90505,1
83,2,4,18,1,1,1.24,0
84,2,15,90,0.5,1,1.3176,1
85,2,7,35,0.068,0,0.81219,1
86,1,18,75,1,1,1.1418,1
87,1,21,18,0.5,1,0.89093,1
88,2,15,90,0.068,1,0.92197,1
89,2,10,65,0.5,1,0.36997,1
90,1,4,25,1,0,1.1115,1
91,1,21,35,1,1,0.45601,1
92,1,4,18,0.068,0,2.6761,1
93,2,7,65,0.068,1,0.98102,1
94,2,10,25,1,0,0.0036751,1
95,2,18,65,0.068,1,1.1775,1
96,1,7,75,1,0,0.79331,1
97,2,18,75,1,1,0.92164,1
98,2,21,18,0.5,0,1.5452,1
99,1,10,65,1,0,1.3407,1
100,1,4,25,0.5,0,0.92483,1
101,1,21,18,0.5,1,0.85091,1
102,1,21,18,1,1,0.92895,1
103,1,10,65,0.068,1,1.1553,0
104,1,15,90,0.5,1,0.98959,1
105,1,15,75,1,1,0.5815,1
106,1,10,65,0.068,1,0.60398,0
107,1,10,65,1,0,1.2434,1
108,2,4,25,1,0,0.96313,1
109,2,21,35,1,0,1.2408,1
110,1,7,75,0.068,0,0.98073,1
111,1,21,35,0.068,1,1.3152,1
112,2,4,18,0.068,0,0.91112,1
113,1,10,65,0.5,0,0.88876,1
114,1,10,25,0.068,0,0.80238,1
115,1,18,25,1,1,0.76482,1
116,2,7,75,1,1,0.91756,1
117,1,7,35,0.068,0,1.334,1
118,2,10,65,1,1,0.98559,1
119,2,4,25,0.5,0,0.91801,1
120,1,21,90,0.068,1,0.78325,1
121,2,21,18,0.5,0,0.85232,1
122,1,10,65,0.068,1,0.89075,0
123,2,21,18,1,0,1.4103,1
124,2,10,65,0.068,1,0.95271,1
125,2,15,90,0.5,1,1.542,1
126,1,7,65,0.5,0,1.2643,1
127,2,15,75,1,1,0.65529,1
128,2,10,65,0.068,1,1.104,1
129,2,10,65,1,1,0.7593,1
130,1,18,18,0.5,0,0.70609,0
131,1,21,75,0.5,1,0.73042,1
132,2,7,75,0.068,0,1.0797,0
133,2,21,35,0.068,1,0.70715,0
134,2,10,65,0.5,1,0.7122,1
135,2,10,25,0.068,0,1.0465,1
136,1,18,75,0.5,1,0.59115,1
137,2,18,25,1,0,1.2132,1
138,1,4,25,0.5,0,1.6595,1
139,1,18,25,0.068,1,0.89816,1
140,1,21,90,1,1,0.79293,1
141,2,7,35,0.068,0,1.0702,1
142,2,21,90,0.068,1,1.0965,1
143,2,10,65,0.068,1,1.0914,1
144,2,7,65,0.5,0,1.0974,0
145,2,18,18,0.5,0,0.92688,1
146,1,18,18,0.5,1,0.71401,1
147,2,21,75,0.5,1,0.93245,1
148,1,7,75,1,0,1.2425,1
149,2,18,75,0.5,1,0.97735,1
150,2,4,25,0.5,0,0.80929,1
151,1,21,75,1,1,1.1696,1
152,1,4,90,0.5,0,0.82447,1
153,1,18,18,1,1,0.805,1
154,2,18,25,0.068,0,1.1644,1
155,1,4,90,0.068,0,0.94004,1
156,1,10,65,0.068,1,0.97652,0
157,2,21,90,1,1,0.81012,1
158,2,18,18,0.5,0,0.8685,1
159,1,7,75,0.5,0,0.85158,1
160,1,10,25,0.5,0,1.1749,1
161,2,7,75,1,0,0.94338,0
162,2,21,75,1,1,0.62935,1
163,2,4,90,0.5,1,1.0359,1
164,1,15,90,1,0,0.94793,0
165,1,4,25,0.068,0,0.78755,1
166,1,10,25,1,1,0.60332,0
167,1,15,35,1,1,0.51715,1
168,2,18,18,1,0,1.1724,1
169,2,4,90,0.068,1,1.3475,1
170,2,10,65,0.068,1,0.73428,1
171,1,10,25,0.068,0,0.75505,1
172,2,7,75,0.5,1,0.71118,1
173,2,10,25,0.5,0,1.0553,1
174,2,15,90,1,1,0.81191,1
175,1,18,65,1,1,0.97213,1
176,2,4,25,0.068,0,0.82247,1
177,2,10,25,1,0,0.83598,1
178,2,15,35,1,0,1.911,1
179,2,10,25,0.068,0,0.74466,1
180,1,7,35,0.5,0,1.0629,1
181,1,7,35,1,0,1.2632,1
182,1,18,18,0.068,1,1.224,1
183,1,15,35,0.5,1,0.87644,1
184,1,15,75,0.068,1,1.0182,1
185,2,18,65,1,0,1.5286,0
186,2,7,35,0.5,0,1.6973,1
187,1,7,35,0.068,0,1.2002,1
188,1,15,90,0.068,0,1.5868,0
189,2,7,35,1,0,1.0446,1
190,1,7,75,0.068,1,1.1312,0
191,2,18,18,0.068,0,2.9902,1
192,1,15,90,1,1,1.2441,1
193,2,15,35,0.5,0,1.5934,1
194,2,15,75,0.068,1,0.85033,1
195,1,4,25,0.068,0,0.79194,1
196,2,7,35,0.068,0,1.0983,1
197,2,15,90,0.068,1,0.86966,1
198,2,7,75,0.068,1,0.91216,1
199,2,15,90,1,1,0.55438,1
200,1,4,90,1,1,1.005,0
201,2,4,25,0.068,0,1.0962,1
202,2,4,90,1,1,0.73672,1
203,1,15,75,0.5,1,0.76648,1
204,2,15,75,0.5,1,0.94577,1
205,1,15,35,0.068,1,1.474,1
206,2,15,35,0.068,0,1.4517,1
207,1,21,35,0.5,1,0.65039,1
208,2,21,35,0.5,0,1.2653,1
209,1,15,75,0.068,1,0.86323,1
210,1,18,18,0.068,1,0.67124,1
211,1,10,65,1,0,1.3421,1
212,2,15,75,0.068,1,0.72625,1
213,2,18,18,0.068,1,1.1302,0
214,1,7,65,1,0,0.82226,1
215,2,10,65,1,1,0.87929,1
216,2,7,65,1,1,1.0057,1
