Trial Number,TrialTypeN1S2,Nvalue,Svalue,time,KeyPressZsmallMgreater,ReactionTime,Accuracy
1,1,21,75,0.5,1,5.4717,1
2,1,18,35,0.5,1,13.9629,1
3,2,21,75,0.5,0,13.2012,0
4,2,18,35,0.5,1,7.2641,0
5,2,18,75,0.068,1,3.5567,1
6,1,18,75,0.068,1,12.8234,1
7,2,10,35,0.5,0,2.4625,1
8,1,10,35,0.5,0,1.2643,1
9,1,18,18,0.068,1,2.2316,1
10,2,18,18,0.068,0,4.5787,1
11,2,7,25,0.5,0,1.5175,1
12,2,15,25,0.068,1,2.5175,0
13,2,21,90,1,1,2.9124,1
14,1,7,25,0.5,0,3.4157,1
15,1,15,25,0.068,1,2.042,1
16,2,4,35,0.068,1,2.0579,0
17,1,21,90,1,1,2.0861,1
18,1,4,35,0.068,0,3.0742,1
19,1,4,35,1,0,1.863,1
20,1,15,35,0.068,0,3.1131,0
21,1,18,75,0.068,1,2.8829,1
22,2,4,35,1,0,4.728,1
23,1,4,65,0.068,0,2.2866,1
24,1,7,25,0.068,0,1.2405,1
25,2,15,35,0.068,1,3.3905,0
26,1,15,90,0.068,1,3.5552,1
27,2,18,75,0.068,1,1.473,1
28,1,7,25,0.5,0,5.3698,1
29,1,18,18,1,1,1.1881,1
30,2,4,65,0.068,1,4.5353,1
31,1,7,25,0.068,1,3.3217,0
32,2,7,25,0.068,0,2.6483,1
33,2,15,90,0.068,1,2.0973,1
34,1,4,75,0.5,0,3.1777,1
35,1,10,65,0.068,0,2.5452,1
36,2,7,25,0.5,0,1.328,1
37,1,18,75,1,1,2.4212,1
38,1,15,35,0.5,1,1.4759,1
39,2,18,18,1,0,2.8587,1
40,1,10,65,1,1,10.9251,0
41,2,7,25,0.068,0,2.1121,1
42,1,18,35,1,1,1.4897,1
43,2,4,75,0.5,0,2.6615,0
44,2,10,65,0.068,1,1.3638,1
45,1,10,18,1,1,4.679,0
46,2,18,75,1,1,1.6045,1
47,1,7,25,1,0,0.85828,1
48,2,15,35,0.5,0,1.3692,1
49,2,10,65,1,1,0.83737,1
50,2,18,35,1,1,1.8491,0
51,2,10,18,1,1,0.80048,0
52,2,7,25,1,0,0.75526,1
53,2,21,90,1,1,0.96456,1
54,1,21,90,1,1,2.2391,1
55,2,15,75,1,1,1.3525,1
56,2,15,90,0.5,1,0.89332,1
57,1,15,75,1,1,0.27914,1
58,2,21,90,0.068,1,1.7653,1
59,1,15,90,0.5,0,5.1967,0
60,1,21,90,0.068,1,1.6932,1
61,1,4,75,0.068,0,1.242,1
62,1,10,18,0.068,1,5.001,0
63,1,15,75,1,1,1.6422,1
64,1,4,35,1,0,0.77612,1
65,1,10,35,0.068,1,5.8137,0
66,2,4,75,0.068,1,2.0963,1
67,2,10,18,0.068,0,1.8763,1
68,2,15,75,1,1,1.0095,1
69,1,18,18,0.5,1,1.0822,1
70,1,15,25,1,1,0.50326,1
71,2,4,35,1,0,1.1214,1
72,2,10,35,0.068,1,3.5255,0
73,1,7,25,1,0,1.5629,1
74,1,4,35,0.5,1,2.1535,0
75,2,18,18,0.5,1,0.37171,0
76,2,15,25,1,0,0.50644,1
77,1,10,65,1,0,1.6788,1
78,1,18,75,1,1,0.96232,1
79,1,15,75,0.068,1,2.7576,1
80,1,7,25,1,0,1.2876,1
81,1,4,18,0.068,0,1.0372,1
82,1,4,65,0.5,0,1.3321,1
83,1,10,35,0.5,1,1.9016,0
84,1,10,90,0.068,1,1.32,0
85,1,18,75,0.5,1,0.99676,1
86,2,7,25,1,0,1.3203,1
87,1,21,65,0.068,1,1.2438,1
88,1,7,25,0.068,0,0.98655,1
89,2,4,35,0.5,0,1.1661,1
90,1,4,35,0.068,0,1.0077,1
91,2,10,65,1,1,3.6254,1
92,2,18,75,1,1,0.49047,1
93,2,15,75,0.068,1,1.1698,1
94,2,7,25,1,0,1.0949,1
95,2,4,18,0.068,0,0.88963,1
96,2,4,65,0.5,0,1.7758,0
97,2,10,35,0.5,1,1.8635,0
98,1,18,18,1,1,0.98418,1
99,2,10,90,0.068,1,1.1088,1
100,2,18,75,0.5,1,2.0783,1
101,1,10,35,0.068,1,4.6909,0
102,1,21,65,1,1,1.2953,1
103,2,21,65,0.068,1,1.63,1
104,2,7,25,0.068,0,1.2406,1
105,1,10,35,1,1,2.5336,0
106,1,15,35,1,1,1.5033,1
107,1,18,18,0.5,1,0.78067,1
108,2,4,35,0.068,0,5.8069,1
109,1,4,65,1,0,1.451,1
110,2,18,18,1,0,1.2015,1
111,1,10,90,0.5,0,1.9755,1
112,1,10,65,0.5,1,1.3393,0
113,2,10,35,0.068,1,2.1152,0
114,1,21,90,1,1,1.4922,1
115,1,15,75,0.5,1,0.83413,1
116,1,21,90,0.068,1,1.5286,1
117,2,21,65,1,1,2.1992,1
118,2,10,35,1,0,1.3943,1
119,2,15,35,1,0,4.8043,1
120,2,18,18,0.5,1,5.8453,0
121,2,4,65,1,0,2.0869,0
122,1,4,65,0.068,0,1.1819,1
123,1,7,90,1,0,3.0261,1
124,1,7,25,0.5,0,1.4422,1
125,2,10,90,0.5,1,1.3612,1
126,1,21,65,0.5,0,0.67993,0
127,1,10,65,0.068,0,5.3658,1
128,1,7,90,0.5,1,5.0891,0
129,1,7,25,0.5,1,8.1687,0
130,1,18,35,0.068,1,1.4078,1
131,1,4,65,1,0,0.72327,1
132,2,10,65,0.5,1,1.1652,1
133,1,7,25,0.5,0,2.388,1
134,2,21,90,1,1,1.4485,1
135,2,15,75,0.5,1,0.94949,1
136,1,21,75,0.068,1,1.9083,1
137,2,21,90,0.068,1,1.0361,1
138,1,21,75,1,1,1.1444,1
139,2,4,65,0.068,0,1.4135,0
140,1,10,90,1,1,3.9754,0
141,2,7,90,1,0,1.8523,0
142,2,7,25,0.5,0,0.86034,1
143,2,21,65,0.5,1,1.2025,1
144,2,10,65,0.068,1,1.3348,1
145,2,7,90,0.5,0,1.5742,0
146,1,7,25,1,0,0.38227,1
147,1,15,75,0.068,1,2.1033,1
148,1,18,18,1,1,10.5273,1
149,2,7,25,0.5,0,3.4806,1
150,2,18,35,0.068,0,2.3491,1
151,1,18,75,0.5,1,1.5993,1
152,1,15,25,0.5,1,0.56241,1
153,1,4,18,0.5,0,0.63417,1
154,1,21,90,0.5,1,1.1341,1
155,1,10,65,0.5,0,3.4951,1
156,2,4,65,1,0,1.4675,0
157,2,7,25,0.5,0,1.0155,1
158,2,21,75,0.068,1,2.0821,1
159,1,21,65,1,1,1.0021,1
160,2,21,75,1,1,0.7434,1
161,1,15,75,0.5,1,1.1829,1
162,2,10,90,1,1,1.4116,1
163,2,7,25,1,0,4.3608,1
164,1,21,90,0.5,1,0.45405,1
165,1,21,90,0.5,1,0.69926,1
166,2,15,75,0.068,1,1.3143,1
167,1,15,18,0.5,1,1.0967,1
168,1,7,25,0.068,0,4.1013,1
169,2,18,18,1,0,1.2013,1
170,1,4,35,0.5,0,1.2862,1
171,1,21,65,0.5,1,1.2596,1
172,1,10,18,0.5,0,3.0872,1
173,2,18,75,0.5,1,1.2505,1
174,1,18,18,0.5,1,0.45715,1
175,2,15,25,0.5,0,1.5352,1
176,2,4,18,0.5,0,0.73832,1
177,2,21,90,0.5,1,1.3962,1
178,2,10,65,0.5,1,1.1342,1
179,1,4,18,1,0,1.0213,1
180,2,21,65,1,1,0.88136,1
181,2,15,75,0.5,1,0.63225,1
182,2,21,90,0.5,1,0.47296,1
183,1,21,90,0.068,1,1.1497,1
184,2,21,90,0.5,1,1.2252,1
185,2,15,18,0.5,0,0.60051,1
186,2,7,25,0.068,0,1.6324,1
187,1,18,18,0.068,1,1.1675,1
188,1,15,90,1,1,1.5274,1
189,2,4,35,0.5,0,0.61055,1
190,2,21,65,0.5,1,1.0164,1
191,1,18,18,0.068,1,1.2016,1
192,2,10,18,0.5,0,1.1789,1
193,1,15,18,0.068,1,0.89635,1
194,1,15,18,1,1,0.9993,1
195,2,18,18,0.5,0,1.1415,1
196,1,4,75,1,0,0.34034,1
197,2,4,18,1,0,0.79888,1
198,1,4,65,0.5,0,1.0653,1
199,2,21,90,0.068,1,1.3858,1
200,2,18,18,0.068,0,1.4415,1
201,1,10,35,1,1,1.3739,0
202,2,15,90,1,1,1.2282,1
203,2,18,18,0.068,0,1.8537,1
204,2,15,18,0.068,1,4.9374,0
205,2,15,18,1,0,0.87539,1
206,2,4,75,1,0,0.56672,0
207,1,21,65,0.068,1,1.1889,1
208,1,7,25,0.068,0,1.4983,1
209,1,7,90,0.068,0,1.179,1
210,2,4,65,0.5,0,1.2223,0
211,2,10,35,1,0,0.98215,1
212,2,21,65,0.068,1,0.96726,1
213,2,7,25,0.068,0,0.84973,1
214,2,7,90,0.068,1,0.80383,1
215,1,7,25,1,1,3.764,0
216,2,7,25,1,0,1.2913,1
