Trial Number,TrialTypeN1S2,Nvalue,Svalue,time,KeyPressZsmallMgreater,ReactionTime,Accuracy
1,1,21,35,0.5,1,1.3661,1
2,1,18,65,0.068,1,1.7457,1
3,1,18,25,0.5,0,0.75561,0
4,1,10,65,1,0,1.0292,1
5,1,4,25,0.5,0,0.76163,1
6,1,18,18,0.5,0,0.0050692,0
7,1,21,65,0.068,1,0.81362,1
8,2,21,35,0.5,1,0.31041,0
9,1,18,65,0.5,1,0.91324,1
10,2,18,65,0.068,1,1.7498,1
11,2,18,25,0.5,0,1.0993,1
12,2,10,65,1,1,2.0252,1
13,1,7,75,0.5,1,0.59793,0
14,2,4,25,0.5,0,0.25628,1
15,2,18,18,0.5,0,0.37206,1
16,2,21,65,0.068,1,1.1767,1
17,1,7,25,0.5,0,0.93546,1
18,2,18,65,0.5,1,0.65916,1
19,2,7,75,0.5,1,0.5981,1
20,2,7,25,0.5,0,0.93061,1
21,1,15,65,0.5,1,0.71864,1
22,2,15,65,0.5,1,0.22897,1
23,2,4,35,0.5,1,0.52441,0
24,1,4,35,0.5,0,0.25612,1
25,2,21,90,1,1,0.5348,1
26,1,21,90,1,1,0.88944,1
27,1,15,90,0.068,1,0.616,1
28,1,4,25,1,0,0.32408,1
29,2,15,90,0.068,1,1.323,1
30,1,10,35,1,1,2.8215,0
31,2,4,25,1,0,0.48656,1
32,1,15,35,0.5,1,0.56995,1
33,1,21,90,0.5,1,0.30331,1
34,1,18,25,1,0,0.49665,0
35,2,10,35,1,0,3.723,1
36,1,7,25,0.5,1,1.1702,0
37,1,21,75,0.5,1,0.13322,1
38,2,15,35,0.5,0,0.81313,1
39,1,4,18,1,1,1.3027,0
40,2,21,90,0.5,1,1.0727,1
41,1,15,90,0.5,1,0.64047,1
42,2,18,25,1,1,1.2841,0
43,2,7,25,0.5,0,0.29946,1
44,2,21,75,0.5,1,0.54904,1
45,2,4,18,1,0,0.4342,1
46,2,15,90,0.5,0,10.3595,0
47,1,7,75,0.068,0,1.0148,1
48,2,7,75,0.068,0,5.3605,0
49,2,18,65,1,0,4.1061,0
50,1,18,65,1,1,5.2126,1
51,1,7,25,1,0,0.19283,1
52,1,18,25,1,1,2.7806,1
53,2,7,25,1,1,24.0713,0
54,2,18,25,1,1,0.041923,0
55,2,15,35,1,0,0.33911,1
56,1,15,35,1,0,0.30136,0
57,2,18,90,0.068,1,0.80304,1
58,1,18,90,0.068,1,0.56793,1
59,1,21,75,0.068,1,0.52879,1
60,1,15,65,1,0,0.017522,0
61,2,21,75,0.068,1,1.3384,1
62,1,7,18,0.068,0,4.4679,1
63,2,15,65,1,1,20.3624,1
64,1,10,75,0.5,0,0.075159,1
65,2,7,18,0.068,0,0.84986,1
66,2,10,75,0.5,1,0.77704,1
67,2,15,18,0.068,0,0.59809,1
68,1,15,18,0.068,1,0.8184,1
69,1,7,25,0.068,0,1.1416,1
70,2,7,25,0.068,0,1.1859,1
71,1,7,75,1,0,0.98881,1
72,2,7,75,1,0,0.29562,0
73,1,18,90,0.5,1,0.0029535,1
74,1,4,25,0.068,0,0.24996,1
75,2,18,90,0.5,1,1.2658,1
76,2,4,25,0.068,1,0.21113,0
77,2,4,75,0.068,0,0.32265,0
78,1,4,75,0.068,0,0.47472,1
79,2,7,75,1,0,0.31475,0
80,2,18,25,0.068,1,3.4014,0
81,2,15,65,1,1,0.40227,1
82,2,18,25,0.068,0,1.6059,1
83,1,7,75,1,1,0.70526,0
84,2,4,90,0.068,1,0.32201,1
85,1,18,25,0.068,0,0.3437,0
86,1,15,65,1,1,0.68689,1
87,2,18,18,0.5,0,0.61929,1
88,1,18,25,0.068,1,33.9845,1
89,1,4,90,0.068,0,1.1827,1
90,2,18,18,0.068,0,1.0212,1
91,1,18,18,0.5,1,1.9391,1
92,1,18,18,0.068,1,1.3703,1
93,2,15,65,0.068,1,0.62225,1
94,2,10,35,0.068,1,4.4445,0
95,2,4,18,0.5,0,11.7807,1
96,1,15,65,0.068,1,25.4823,1
97,2,4,25,0.068,0,1.3288,1
98,2,4,90,1,1,0.0034959,1
99,2,15,18,0.5,1,0.94191,0
100,2,10,90,0.5,0,1.4921,0
101,1,10,35,0.068,1,0.6676,0
102,1,4,18,0.5,0,0.46608,1
103,2,10,65,0.5,1,0.81116,1
104,2,4,90,0.5,0,0.47997,0
105,1,4,25,0.068,1,7.6683,0
106,1,4,90,1,0,0.71395,1
107,2,7,35,1,1,0.26544,0
108,1,15,18,0.5,1,13.7668,1
109,2,15,65,0.5,0,0.4012,0
110,1,10,90,0.5,1,0.14676,0
111,1,10,65,0.5,1,0.11385,0
112,2,15,18,0.068,0,32.1385,1
113,2,15,35,0.068,0,1.5181,1
114,1,4,90,0.5,0,1.0075,1
115,1,7,35,1,0,1.316,1
116,1,15,65,0.5,1,1.5756,1
117,2,21,35,0.068,1,3.0059,0
118,2,10,65,0.068,1,0.87835,1
119,1,15,18,0.068,0,1.2923,0
120,2,21,90,1,1,0.85631,1
121,1,15,35,0.068,1,1.205,1
122,1,21,35,0.068,1,1.4838,1
123,2,7,25,0.068,0,4.603,1
124,2,21,65,1,1,0.62955,1
125,1,10,65,0.068,0,3.2406,1
126,1,21,90,1,0,105.4817,0
127,1,7,25,0.068,0,1.003,1
128,1,21,65,1,1,0.0031566,1
129,2,7,18,1,0,0.56986,1
130,2,21,65,0.5,1,0.61185,1
131,1,7,18,1,0,0.15962,1
132,1,21,65,0.5,1,0.050126,1
133,2,4,35,1,0,0.076699,1
134,1,4,35,1,0,0.023993,1
135,1,7,18,0.5,0,1.6544,1
136,1,18,18,0.068,0,1.771,0
137,1,4,25,1,0,0.28449,1
138,1,4,35,0.068,0,0.61683,1
139,2,7,18,0.5,0,0.39173,1
140,1,7,75,0.5,1,0.45763,0
141,2,18,18,0.068,0,0.56217,1
142,1,7,35,0.5,0,0.34158,1
143,2,4,25,1,0,0.24771,1
144,1,21,90,0.068,1,1.0786,1
145,2,4,35,0.068,0,0.20383,1
146,1,10,35,0.5,1,5.2173,0
147,2,7,75,0.5,0,0.0029269,0
148,1,15,65,0.068,1,1.555,1
149,2,7,35,0.5,0,0.34278,1
150,1,18,25,0.5,1,0.92382,1
151,1,18,18,1,1,0.94887,1
152,1,4,75,0.5,0,1.3568,1
153,1,21,90,0.068,1,0.63116,1
154,2,21,90,0.068,1,0.60885,1
155,2,10,35,0.5,0,0.38378,1
156,2,15,65,0.068,1,0.92226,1
157,2,18,25,0.5,0,13.2889,1
158,2,18,18,1,1,0.50708,0
159,2,4,75,0.5,0,1.4338,0
160,2,21,90,0.068,1,0.88042,1
161,1,10,65,0.5,1,0.80547,0
162,1,10,65,1,1,0.55602,0
163,1,15,18,0.5,1,4.6088,1
164,2,10,65,0.5,1,41.3076,1
165,2,10,65,1,1,1.1258,1
166,1,10,75,0.068,1,28.0243,0
167,2,15,18,0.5,1,2.0139,0
168,1,15,90,1,1,1.2769,1
169,2,10,75,0.068,1,1.6679,1
170,1,15,18,1,1,0.73105,1
171,1,4,18,0.068,0,0.90996,1
172,2,15,90,1,1,0.99134,1
173,1,10,90,1,1,1.3195,0
174,1,21,35,0.068,1,1.2294,1
175,2,15,18,1,1,1.1103,0
176,2,4,18,0.068,0,0.68815,1
177,2,10,90,1,1,0.54488,1
178,2,21,35,0.068,1,2.1633,0
179,1,7,35,0.068,0,0.2026,1
180,2,7,35,0.068,1,0.13967,0
181,2,10,75,0.5,0,0.002429,0
182,2,7,25,1,0,0.26949,1
183,2,10,75,1,1,0.0029752,1
184,2,7,75,0.068,0,0.52699,0
185,1,10,75,0.5,1,0.31309,0
186,1,7,25,1,0,0.0060251,1
187,1,10,75,1,1,0.0045843,0
188,1,7,75,0.068,1,0.0030556,0
189,2,21,75,1,0,0.17983,0
190,1,21,75,1,0,0.30573,0
191,2,4,75,1,0,1.1965,0
192,1,4,75,1,0,0.35543,1
193,1,10,90,0.068,0,0.71382,1
194,1,21,35,1,1,0.14424,1
195,2,10,90,0.068,0,0.46812,0
196,1,18,90,1,1,0.0033568,1
197,1,10,65,0.068,1,0.35526,0
198,2,21,35,1,1,0.25771,0
199,2,18,90,1,1,0.14086,1
200,2,10,65,0.068,1,0.296,1
201,2,21,90,0.5,1,0.11224,1
202,1,21,90,0.5,1,0.25542,1
203,2,4,25,0.5,0,0.44107,1
204,2,18,18,1,0,0.14834,1
205,1,4,25,0.5,0,0.4018,1
206,1,18,18,1,0,0.004847,0
207,1,21,35,0.5,0,0.33575,0
208,2,21,35,0.5,0,0.37264,1
209,1,10,75,0.068,0,2.4534,1
210,1,15,18,1,0,0.51132,0
211,2,10,75,0.068,0,0.49322,0
212,2,15,18,1,0,0.0027378,1
213,1,10,75,1,1,1.7683,0
214,2,10,75,1,0,1.4562,0
215,1,21,35,1,1,0.0028277,1
216,2,21,35,1,1,0.32305,0
