Trial Number,TrialTypeN1S2,Nvalue,Svalue,time,KeyPressZsmallMgreater,ReactionTime,Accuracy
1,1,7,65,1,0,3.8228,1
2,2,7,65,1,1,1.605,1
3,2,18,25,0.068,0,1.9702,1
4,1,18,25,0.068,0,2.0144,0
5,1,10,90,1,0,1.0493,1
6,2,10,90,1,1,1.4797,1
7,2,15,75,0.5,0,1.2542,0
8,1,15,75,0.5,0,2.2461,0
9,1,7,65,0.068,1,1.8234,0
10,1,18,75,1,1,1.5316,1
11,2,7,65,0.068,1,1.9384,1
12,1,7,35,1,0,1.1482,1
13,1,4,65,1,0,1.1411,1
14,2,18,75,1,1,0.75773,1
15,2,7,35,1,1,1.2453,0
16,2,4,65,1,1,1.122,1
17,2,4,35,0.5,1,1.1433,0
18,2,21,25,1,0,1.0167,1
19,2,7,65,0.5,1,1.3473,1
20,1,4,35,0.5,0,1.1305,1
21,2,10,18,1,0,1.3738,1
22,2,7,75,0.068,1,1.1907,1
23,1,21,25,1,1,1.1524,1
24,2,7,65,1,0,1.1164,0
25,2,21,18,0.5,1,0.96813,0
26,2,18,25,1,0,1.3116,1
27,2,15,75,0.5,1,1.2244,1
28,1,7,65,0.5,0,1.2006,1
29,1,10,18,1,0,0.99711,1
30,2,4,65,0.5,1,1.5459,1
31,1,7,75,0.068,0,1.5968,1
32,1,7,65,1,1,1.6936,0
33,2,21,35,0.068,0,1.4663,1
34,1,21,18,0.5,1,1.1935,1
35,1,18,25,1,1,1.3368,1
36,2,4,35,1,0,1.1472,1
37,1,15,75,0.5,1,2.0333,1
38,1,4,65,0.5,0,1.1521,1
39,1,21,35,0.068,1,1.3409,1
40,1,4,35,1,0,1.1961,1
41,2,15,75,0.068,1,4.1831,1
42,1,15,75,0.068,1,2.7887,1
43,1,4,90,0.068,0,1.826,1
44,1,15,35,0.5,1,3.1853,1
45,1,10,35,1,0,1.6952,1
46,1,18,18,0.5,1,1.0974,1
47,1,15,18,0.068,0,1.9755,0
48,2,4,90,0.068,1,1.0166,1
49,2,15,35,0.5,0,1.1947,1
50,1,21,90,0.5,1,2.0207,1
51,1,21,25,0.5,1,1.5936,1
52,2,10,35,1,0,1.0313,1
53,2,18,18,0.5,0,1.3944,1
54,2,15,18,0.068,0,0.92912,1
55,1,4,35,0.068,0,1.3975,1
56,2,21,90,0.5,1,1.3262,1
57,2,21,25,0.5,0,4.2672,1
58,2,4,35,0.068,1,1.9592,0
59,1,15,75,1,1,2.1262,1
60,1,15,35,1,1,2.339,1
61,2,15,75,1,1,1.2204,1
62,2,15,35,1,1,4.984,0
63,2,7,65,0.5,0,6.9219,0
64,1,7,65,0.5,0,2.3733,1
65,2,7,75,1,1,0.99446,1
66,1,7,75,1,0,1.1842,1
67,2,10,18,1,0,1.5089,1
68,1,10,18,1,0,0.62384,1
69,2,4,75,1,1,2.0126,1
70,1,4,75,1,0,3.4739,1
71,1,18,65,0.5,1,1.5878,1
72,1,10,18,0.068,0,1.4579,1
73,2,18,65,0.5,1,0.95523,1
74,2,10,18,0.068,0,2.5284,1
75,2,18,35,0.5,1,1.4955,0
76,2,21,18,0.068,0,2.4613,1
77,1,18,35,0.5,1,2.1219,1
78,1,21,18,0.068,1,2.2231,1
79,1,21,90,1,1,5.9544,1
80,1,10,35,0.5,0,0.72061,1
81,1,21,35,0.5,1,1.5476,1
82,1,10,90,0.068,0,0.9516,1
83,1,15,75,1,1,5.7582,1
84,1,15,18,1,0,1.5665,0
85,2,21,90,1,1,1.1055,1
86,1,4,90,0.5,1,4.2681,0
87,2,10,35,0.5,0,1.5229,1
88,1,7,65,0.068,0,3.1123,1
89,2,21,35,0.5,0,1.8115,1
90,2,10,90,0.068,1,1.4621,1
91,1,4,75,0.5,0,1.3354,1
92,2,15,75,1,1,3.5784,1
93,2,15,18,1,0,2.7313,1
94,2,4,90,0.5,1,1.6795,1
95,1,4,90,0.068,0,2.0549,1
96,1,21,18,0.5,1,1.4058,1
97,1,7,35,0.068,0,1.1824,1
98,2,7,65,0.068,1,1.2714,1
99,1,15,25,0.5,1,1.434,1
100,1,15,90,0.5,1,1.9915,1
101,1,18,25,1,1,0.9442,1
102,2,4,75,0.5,1,1.1462,1
103,2,4,90,0.068,1,1.1033,1
104,2,21,18,0.5,0,1.077,1
105,1,7,65,0.068,0,2.4691,1
106,1,21,25,0.5,1,1.1006,1
107,2,7,35,0.068,0,3.0738,1
108,2,15,25,0.5,0,6.0712,1
109,2,15,90,0.5,1,0.76882,1
110,2,18,25,1,1,0.90973,0
111,2,7,65,0.068,1,4.6586,1
112,1,15,90,1,1,1.3891,1
113,2,21,25,0.5,0,1.3217,1
114,2,15,90,1,1,3.2638,1
115,1,10,18,0.068,0,1.0283,1
116,2,10,18,0.068,0,1.8121,1
117,2,4,90,0.5,1,0.70691,1
118,1,4,90,0.5,0,4.3287,1
119,2,18,18,0.068,0,2.1131,1
120,2,4,90,0.068,1,3.1779,1
121,2,4,75,0.068,0,3.2312,0
122,1,18,18,0.068,1,1.6556,1
123,1,4,90,0.068,0,0.9351,1
124,2,18,35,1,0,1.3236,1
125,1,4,75,0.068,0,4.2543,1
126,2,10,75,1,1,2.3429,1
127,1,18,35,1,1,1.6004,1
128,2,10,75,0.5,0,9.2484,0
129,1,10,75,1,1,1.4106,0
130,1,10,75,0.5,0,1.3949,1
131,1,7,35,0.5,0,2.171,1
132,1,18,65,0.068,1,1.599,1
133,1,15,25,1,1,1.4656,1
134,2,7,35,0.5,0,2.7618,1
135,2,18,65,0.068,1,1.5455,1
136,2,15,25,1,0,1.231,1
137,2,4,65,0.068,1,2.4536,1
138,1,4,65,0.068,0,2.2442,1
139,2,18,35,0.068,0,1.843,1
140,1,18,35,0.068,1,0.9601,1
141,1,4,90,1,0,1.0263,1
142,1,21,35,1,1,1.5646,1
143,2,4,90,1,1,2.3999,1
144,1,18,18,1,1,0.88285,1
145,1,10,25,1,0,0.96901,1
146,1,10,18,0.5,0,2.4405,1
147,2,21,35,1,1,1.0972,0
148,2,18,18,1,0,1.1922,1
149,1,18,25,0.068,1,0.87734,1
150,2,10,25,1,0,2.3102,1
151,1,18,65,1,1,1.0203,1
152,2,10,18,0.5,0,1.5139,1
153,1,21,18,1,1,0.69274,1
154,1,10,90,0.5,0,1.5208,1
155,2,18,25,0.068,0,1.8793,1
156,1,4,90,1,0,2.1905,1
157,2,18,65,1,1,1.4733,1
158,1,15,90,0.068,0,3.7363,0
159,1,18,75,0.068,1,2.0171,1
160,2,21,18,1,0,0.8127,1
161,2,10,90,0.5,1,8.0071,1
162,1,10,75,0.068,0,1.3164,1
163,1,21,18,1,1,1.4727,1
164,2,4,90,1,1,1.5974,1
165,2,15,90,0.068,0,4.7516,0
166,1,7,65,0.068,0,2.0435,1
167,1,18,25,0.5,1,1.7158,1
168,2,18,75,0.068,1,1.1053,1
169,2,10,75,0.068,0,1.1709,0
170,2,21,18,1,1,1.1999,0
171,2,7,65,0.068,0,0.99722,0
172,1,15,25,0.068,1,1.2169,1
173,1,10,25,0.068,0,1.163,1
174,2,18,25,0.5,0,1.5949,1
175,1,7,65,0.5,0,2.1896,1
176,1,15,18,0.5,1,1.2446,1
177,2,15,25,0.068,0,1.6161,1
178,1,18,25,0.5,0,1.6092,0
179,2,10,25,0.068,1,1.5901,0
180,1,10,18,0.5,1,1.6228,0
181,1,10,25,0.5,0,3.469,1
182,1,21,25,1,1,0.93309,1
183,2,7,65,0.5,1,1.3318,1
184,2,15,18,0.5,0,1.8932,1
185,1,7,65,1,0,2.8621,1
186,2,18,25,0.5,0,4.8039,1
187,1,21,25,0.068,1,1.3994,1
188,2,10,18,0.5,0,4.9752,1
189,2,10,25,0.5,0,1.3702,1
190,2,21,25,1,0,1.404,1
191,2,7,65,1,1,1.3436,1
192,1,7,75,0.5,0,7.0401,1
193,2,21,25,0.068,0,1.2749,1
194,1,7,65,0.5,0,1.835,1
195,2,7,75,0.5,0,2.0006,0
196,2,7,65,0.5,0,2.0726,0
197,1,4,90,1,0,1.7775,1
198,1,7,65,1,1,0.99387,0
199,2,4,90,1,1,6.9248,1
200,2,7,65,1,1,1.8625,1
201,1,18,75,0.5,1,2.2465,1
202,2,18,75,0.5,1,1.51,1
203,2,21,90,0.068,1,1.1754,1
204,2,21,18,0.068,0,0.68362,1
205,1,21,90,0.068,0,4.2159,0
206,1,21,18,0.068,1,2.9562,1
207,1,4,90,0.5,0,0.77397,1
208,1,15,75,0.068,1,1.5055,1
209,2,4,90,0.5,0,0.82237,0
210,2,15,75,0.068,1,1.1883,1
211,1,10,35,0.068,1,2.1843,0
212,2,10,35,0.068,0,1.9444,1
213,2,21,25,0.068,0,2.3586,1
214,2,15,35,0.068,1,1.1687,0
215,1,21,25,0.068,1,1.2653,1
216,1,15,35,0.068,0,1.3376,0
