Trial Number,TrialTypeN1S2,Nvalue,Svalue,time,KeyPressZsmallMgreater,ReactionTime,Accuracy,displaytime
1,1,21,75,0.5,1,10.4901,1,3093895.4902
2,1,18,35,0.5,1,6.1265,1,3093908.5658
3,2,21,75,0.5,1,6.5184,1,3093917.2222
4,2,18,35,0.5,0,7.196,1,3093926.3039
5,2,18,75,0.068,1,4.5184,1,3093935.5977
6,1,18,75,0.068,1,3.7135,1,3093942.2584
7,2,10,35,0.5,0,2.0169,1,3093948.5229
8,1,10,35,0.5,0,0.27707,1,3093953.0628
9,1,18,18,0.068,1,2.8648,1,3093955.4431
10,2,18,18,0.068,0,1.6008,1,3093960.4352
11,2,7,25,0.5,0,3.8969,1,3093964.539
12,2,15,25,0.068,0,4.3851,1,3093970.5395
13,2,21,90,1,1,8.6857,1,3093977.9108
14,1,7,25,0.5,1,5.3836,0,3093989.0923
15,1,15,25,0.068,1,2.8919,1,3093996.56
16,2,4,35,0.068,1,8.7297,0,3094001.531
17,1,21,90,1,0,5.0827,0,3094013.2258
18,1,4,35,0.068,0,4.7186,1,3094020.3818
19,1,4,35,1,1,4.7556,0,3094028.0808
20,1,15,35,0.068,0,2.7831,0,3094034.9008
21,1,18,75,0.068,1,1.6605,1,3094039.7198
22,2,4,35,1,0,0.0011911,1,3094044.4037
23,1,4,65,0.068,0,5.6894,1,3094046.4745
24,1,7,25,0.068,0,3.77,1,3094054.2184
25,2,15,35,0.068,0,2.0915,1,3094060.0808
26,1,15,90,0.068,1,2.1004,1,3094064.232
27,2,18,75,0.068,0,4.7892,0,3094068.4391
28,1,7,25,0.5,0,0.36114,1,3094075.7392
29,1,18,18,1,1,18.4811,1,3094079.1475
30,2,4,65,0.068,0,4.7018,0,3094099.7501
31,1,7,25,0.068,1,2.7211,0,3094106.5159
32,2,7,25,0.068,1,3.9313,0,3094111.353
33,2,15,90,0.068,0,2.4325,0,3094117.4115
34,1,4,75,0.5,0,1.691,1,3094122.3295
35,1,10,65,0.068,1,3.2709,0,3094126.1251
36,2,7,25,0.5,1,4.4027,0,3094131.9132
37,1,18,75,1,1,3.3263,1,3094139.3576
38,1,15,35,0.5,1,0.34977,1,3094145.1661
39,2,18,18,1,0,0.2325,1,3094148.5241
40,1,10,65,1,1,1.8985,0,3094151.7694
41,2,7,25,0.068,0,2.3493,1,3094155.7906
42,1,18,35,1,1,1.8586,1,3094161.1465
43,2,4,75,0.5,0,1.7094,0,3094165.5265
44,2,10,65,0.068,0,2.7733,0,3094169.3347
45,1,10,18,1,1,2.5017,0,3094175.1428
46,2,18,75,1,0,2.8853,0,3094180.6314
47,1,7,25,1,1,1.3517,0,3094186.5802
48,2,15,35,0.5,1,1.8994,0,3094190.4566
49,2,10,65,1,0,1.2318,0,3094195.3881
50,2,18,35,1,1,2.6443,0,3094199.6566
51,2,10,18,1,1,1.9044,0,3094205.3645
52,2,7,25,1,1,1.1312,0,3094210.3297
53,2,21,90,1,0,0.67181,0,3094214.5086
54,1,21,90,1,0,0.61745,0,3094218.1465
55,2,15,75,1,0,0.88565,0,3094221.743
56,2,15,90,0.5,1,0.51805,1,3094225.1268
57,1,15,75,1,1,11.704,1,3094228.6927
58,2,21,90,0.068,0,2.5582,0,3094242.4457
59,1,15,90,0.5,1,2.8377,1,3094247.5353
60,1,21,90,0.068,0,3.0721,0,3094252.4362
61,1,4,75,0.068,1,3.4509,0,3094257.561
62,1,10,18,0.068,0,1.7961,1,3094263.0638
63,1,15,75,1,1,1.7459,1,3094267.8341
64,1,4,35,1,1,0.95228,0,3094272.5644
65,1,10,35,0.068,1,1.6179,0,3094275.6186
66,2,4,75,0.068,0,3.7571,0,3094279.3675
67,2,10,18,0.068,1,8.1437,0,3094285.2129
68,2,15,75,1,1,0.052969,1,3094296.3754
69,1,18,18,0.5,1,0.0010738,1,3094299.0115
70,1,15,25,1,0,0.0008821,0,3094302.0076
71,2,4,35,1,1,0.050999,0,3094305.0658
72,2,10,35,0.068,0,1.4911,1,3094307.1928
73,1,7,25,1,1,1.8313,0,3094311.7327
74,1,4,35,0.5,1,0.1487,0,3094316.1203
75,2,18,18,0.5,1,1.3052,0,3094318.8193
76,2,15,25,1,1,0.34909,0,3094323.1034
77,1,10,65,1,1,0.7621,0,3094326.4989
78,1,18,75,1,1,2.2593,1,3094330.2815
79,1,15,75,0.068,0,1.5998,0,3094334.6127
80,1,7,25,1,0,0.88213,1,3094339.2022
81,1,4,18,0.068,1,0.91086,0,3094342.1651
82,1,4,65,0.5,1,0.39585,0,3094345.6321
83,1,10,35,0.5,1,0.048612,0,3094348.5154
84,1,10,90,0.068,1,0.60794,0,3094350.6445
85,1,18,75,0.5,1,0.4097,1,3094353.739
86,2,7,25,1,1,1.601,0,3094357.1954
87,1,21,65,0.068,1,0.55739,1,3094360.8316
88,1,7,25,0.068,1,0.53027,0,3094363.5067
89,2,4,35,0.5,1,0.033253,0,3094366.5707
90,1,4,35,0.068,1,0.38639,0,3094368.6576
91,2,10,65,1,1,0.13696,1,3094372.035
92,2,18,75,1,0,2.2191,0,3094375.1688
93,2,15,75,0.068,0,0.75357,0,3094379.4751
94,2,7,25,1,1,1.1053,0,3094383.2117
95,2,4,18,0.068,1,0.75727,0,3094386.4471
96,2,4,65,0.5,1,0.11183,1,3094389.6921
97,2,10,35,0.5,1,0.14619,0,3094392.3705
98,1,18,18,1,1,1.504,1,3094395.564
99,2,10,90,0.068,0,1.1192,0,3094399.1568
100,2,18,75,0.5,1,0.9439,1,3094402.8286
101,1,10,35,0.068,1,1.0103,0,3094405.8656
102,1,21,65,1,1,1.2558,1,3094409.9161
103,2,21,65,0.068,0,1.65,0,3094413.29
104,2,7,25,0.068,1,13.9552,0,3094417.0578
105,1,10,35,1,1,1.488,0,3094433.989
106,1,15,35,1,0,1.1611,0,3094438.5069
107,1,18,18,0.5,1,1.6238,1,3094442.2206
108,2,4,35,0.068,1,2.1709,0,3094445.9699
109,1,4,65,1,1,0.55606,0,3094451.1604
110,2,18,18,1,1,2.9074,0,3094454.7526
111,1,10,90,0.5,1,0.84886,0,3094460.1951
112,1,10,65,0.5,1,0.87744,0,3094463.5351
113,2,10,35,0.068,1,1.3745,0,3094466.542
114,1,21,90,1,0,0.189,0,3094470.8957
115,1,15,75,0.5,1,0.5637,1,3094473.6487
116,1,21,90,0.068,0,1.0587,0,3094476.2662
117,2,21,65,1,1,1.1937,1,3094480.3392
118,2,10,35,1,1,4.3879,0,3094484.5446
119,2,15,35,1,1,0.052995,0,3094491.999
120,2,18,18,0.5,1,0.0013233,0,3094494.5975
121,2,4,65,1,0,1.0192,0,3094497.6648
122,1,4,65,0.068,1,1.1742,0,3094500.7663
123,1,7,90,1,1,0.97994,0,3094505.0005
124,1,7,25,0.5,1,0.30029,0,3094508.5443
125,2,10,90,0.5,1,0.1781,1,3094511.3299
126,1,21,65,0.5,0,0.61002,0,3094513.9863
127,1,10,65,0.068,1,0.68089,0,3094516.6911
128,1,7,90,0.5,0,0.2966,1,3094519.9233
129,1,7,25,0.5,1,0.090653,0,3094522.7143
130,1,18,35,0.068,0,0.99481,0,3094524.8502
131,1,4,65,1,0,0.6395,1,3094528.8288
132,2,10,65,0.5,0,0.95723,0,3094531.9352
133,1,7,25,0.5,1,0.0010409,0,3094535.4156
134,2,21,90,1,0,0.30865,0,3094538.4724
135,2,15,75,0.5,0,3.2619,0,3094541.335
136,1,21,75,0.068,1,4.1828,1,3094546.6859
137,2,21,90,0.068,0,0.65468,0,3094552.9501
138,1,21,75,1,0,2.0728,0,3094556.5801
139,2,4,65,0.068,1,2.1133,1,3094560.7317
140,1,10,90,1,1,6.5123,0,3094565.892
141,2,7,90,1,0,1.1505,0,3094575.4616
142,2,7,25,0.5,0,1.0055,1,3094579.1505
143,2,21,65,0.5,0,1.7563,0,3094582.7042
144,2,10,65,0.068,1,0.78694,1,3094586.5375
145,2,7,90,0.5,0,2.2867,0,3094589.8453
146,1,7,25,1,1,1.9409,0,3094595.1833
147,1,15,75,0.068,1,7.0009,1,3094599.2511
148,1,18,18,1,1,0.68314,1,3094609.2419
149,2,7,25,0.5,1,3.8723,0,3094612.4041
150,2,18,35,0.068,1,0.94501,0,3094618.4036
151,1,18,75,0.5,0,3.3791,0,3094621.8893
152,1,15,25,0.5,1,2.0459,1,3094627.7665
153,1,4,18,0.5,1,0.62747,0,3094632.353
154,1,21,90,0.5,0,1.8129,0,3094635.5355
155,1,10,65,0.5,1,2.0498,0,3094639.8506
156,2,4,65,1,1,6.9349,1,3094644.9574
157,2,7,25,0.5,1,4.0352,0,3094654.4257
158,2,21,75,0.068,1,1.1657,1,3094660.5269
159,1,21,65,1,0,0.58598,0,3094664.723
160,2,21,75,1,1,0.54394,1,3094668.3085
161,1,15,75,0.5,0,1.6016,0,3094671.3547
162,2,10,90,1,0,2.4713,0,3094675.9976
163,2,7,25,1,1,1.9737,0,3094681.487
164,1,21,90,0.5,0,2.7408,0,3094685.9675
165,1,21,90,0.5,0,4.0442,0,3094691.1998
166,2,15,75,0.068,1,2.5978,1,3094697.3666
167,1,15,18,0.5,0,2.288,0,3094702.4759
168,1,7,25,0.068,0,4.1621,1,3094706.8898
169,2,18,18,1,0,0.81831,1,3094714.1221
170,1,4,35,0.5,1,1.3912,0,3094717.4453
171,1,21,65,0.5,0,1.1568,0,3094721.3602
172,1,10,18,0.5,1,1.0147,0,3094725.0213
173,2,18,75,0.5,0,0.71702,0,3094728.503
174,1,18,18,0.5,0,2.0974,0,3094731.8025
175,2,15,25,0.5,1,1.2961,0,3094736.4445
176,2,4,18,0.5,1,1.4594,0,3094740.2886
177,2,21,90,0.5,0,1.3958,0,3094744.2646
178,2,10,65,0.5,1,2.3265,1,3094748.1255
179,1,4,18,1,0,1.0151,1,3094753.4929
180,2,21,65,1,0,2.083,0,3094757.5699
181,2,15,75,0.5,0,2.0398,0,3094762.1887
182,2,21,90,0.5,0,0.44407,0,3094766.7923
183,1,21,90,0.068,0,0.8087,0,3094769.3153
184,2,21,90,0.5,0,1.8412,0,3094772.6593
185,2,15,18,0.5,0,4.7485,1,3094777.0004
186,2,7,25,0.068,1,11.7218,0,3094783.8346
187,1,18,18,0.068,0,2.5661,0,3094797.7659
188,1,15,90,1,0,2.0813,0,3094803.3711
189,2,4,35,0.5,1,1.8774,0,3094807.9189
190,2,21,65,0.5,1,3.4177,1,3094812.2987
191,1,18,18,0.068,0,1.1861,0,3094817.8503
192,2,10,18,0.5,1,1.2861,0,3094821.5183
193,1,15,18,0.068,1,3.6962,1,3094824.9083
194,1,15,18,1,0,3.1244,0,3094831.6316
195,2,18,18,0.5,1,28.309,0,3094837.3595
196,1,4,75,1,1,0.1638,0,3094868.6561
197,2,4,18,1,0,0.52214,1,3094871.7939
198,1,4,65,0.5,0,0.24327,1,3094874.8652
199,2,21,90,0.068,1,0.17956,1,3094877.2254
200,2,18,18,0.068,0,0.42215,1,3094879.5184
201,1,10,35,1,1,0.0008512,0,3094882.9367
202,2,15,90,1,0,0.15718,0,3094885.9112
203,2,18,18,0.068,1,1.3724,0,3094888.168
204,2,15,18,0.068,1,1.2913,0,3094891.6011
205,2,15,18,1,1,1.0663,0,3094895.9542
206,2,4,75,1,0,0.31365,0,3094900.0744
207,1,21,65,0.068,0,0.28894,0,3094902.4754
208,1,7,25,0.068,1,0.0010378,0,3094904.8526
209,1,7,90,0.068,0,0.0010268,1,3094906.9301
210,2,4,65,0.5,0,0.049076,0,3094909.4758
211,2,10,35,1,1,0.0012331,0,3094912.573
212,2,21,65,0.068,0,12.9483,0,3094914.6317
213,2,7,25,0.068,1,1.0768,0,3094929.6951
214,2,7,90,0.068,1,1.144,1,3094932.8765
215,1,7,25,1,0,1.2758,1,3094937.0327
216,2,7,25,1,1,4.627,0,3094941.321
