Trial Number,TrialTypeN1S2,Nvalue,Svalue,time,KeyPressZsmallMgreater,ReactionTime,Accuracy
1,1,18,35,1,1,1.834,1
2,1,15,90,0.068,0,2.0413,0
3,2,18,35,1,0,1.8806,1
4,1,15,25,0.068,1,1.6876,1
5,1,4,65,0.5,0,2.3652,1
6,1,4,90,0.068,0,1.2727,1
7,1,7,65,0.5,1,0.90169,0
8,2,15,90,0.068,1,0.82089,1
9,2,15,25,0.068,0,0.81889,1
10,2,4,65,0.5,1,0.64867,1
11,1,15,90,1,1,0.87597,1
12,1,15,75,0.068,0,1.6388,0
13,2,4,90,0.068,1,1.2792,1
14,1,21,65,1,1,0.94598,1
15,2,7,65,0.5,0,1.2814,0
16,1,18,90,0.068,1,0.88565,1
17,2,15,90,1,1,1.9819,1
18,2,15,75,0.068,1,1.4534,1
19,2,21,65,1,0,1.1306,0
20,2,18,90,0.068,1,1.5746,1
21,2,7,65,1,1,0.67116,1
22,2,10,35,1,0,0.53325,1
23,1,7,65,1,1,1.148,0
24,2,10,75,0.5,1,0.82947,1
25,2,15,90,0.068,1,1.016,1
26,2,15,25,0.5,0,0.75063,1
27,1,10,35,1,1,3.6094,0
28,1,10,75,0.5,0,2.1911,1
29,2,21,18,1,0,0.80086,1
30,1,15,90,0.068,0,1.907,0
31,1,15,25,0.5,1,1.0505,1
32,2,10,35,0.068,1,1.3774,0
33,1,21,18,1,0,0.61147,0
34,2,18,75,0.5,1,0.51651,1
35,1,10,35,0.068,0,0.95448,1
36,1,18,75,0.5,1,0.5419,1
37,1,15,90,0.5,1,0.29578,1
38,2,15,90,0.5,1,0.36103,1
39,1,7,18,1,0,0.51078,1
40,1,15,75,0.068,1,1.2404,1
41,2,7,18,1,0,0.82634,1
42,2,15,75,0.068,1,0.90188,1
43,2,10,90,0.5,1,1.2997,1
44,2,21,25,1,0,1.0759,1
45,1,10,90,0.5,1,3.1257,0
46,1,21,25,1,1,1.4208,1
47,1,18,25,0.5,1,1.8002,1
48,1,10,75,1,0,1.4011,1
49,2,18,25,0.5,0,1.3847,1
50,2,10,75,1,1,2.2883,1
51,2,4,35,1,0,1.0172,1
52,2,15,75,0.5,1,1.0649,1
53,2,21,18,0.5,0,0.84262,1
54,2,21,65,0.5,1,0.60524,1
55,2,18,90,1,1,1.5619,1
56,2,4,18,1,0,0.8682,1
57,1,4,35,1,0,1.6308,1
58,2,15,75,0.5,1,0.7979,1
59,2,10,35,0.5,0,0.83015,1
60,2,21,25,0.068,1,1.7023,0
61,2,7,90,1,1,0.76579,1
62,2,15,75,0.5,1,0.95538,1
63,2,4,65,0.5,0,1.1306,0
64,2,21,25,0.068,0,1.8051,1
65,1,15,75,0.5,1,0.98111,1
66,1,21,18,0.5,1,0.54371,1
67,2,18,18,0.5,0,0.78596,1
68,2,7,65,1,1,1.3839,1
69,1,21,65,0.5,1,0.73212,1
70,1,18,90,1,1,0.97993,1
71,2,21,18,0.5,0,0.14711,1
72,2,7,90,0.068,1,1.0626,1
73,1,4,18,1,0,0.71676,1
74,2,4,90,1,1,1.8236,1
75,2,7,18,0.068,0,1.3307,1
76,1,15,75,0.5,1,1.4527,1
77,1,10,35,0.5,1,2.1195,0
78,1,21,25,0.068,1,1.9837,1
79,1,7,90,1,0,3.4173,1
80,1,15,75,0.5,1,2.0546,1
81,2,10,65,0.5,0,3.4568,0
82,1,4,65,0.5,0,1.3382,1
83,1,21,25,0.068,1,48.4961,1
84,1,18,18,0.5,1,1.1178,1
85,1,7,65,1,0,1.3083,1
86,1,21,18,0.5,1,1.2953,1
87,2,18,90,0.5,1,2.41,1
88,1,7,90,0.068,1,1.1278,0
89,2,21,25,1,0,1.3116,1
90,2,18,18,0.068,0,1.3692,1
91,2,10,35,1,1,0.56991,0
92,2,15,90,0.5,1,0.78684,1
93,1,4,90,1,0,0.81222,1
94,1,7,18,0.068,1,2.0523,0
95,1,10,65,0.5,1,1.0106,0
96,2,15,90,1,1,1.3428,1
97,1,18,90,0.5,1,0.82622,1
98,2,10,65,1,0,1.6714,0
99,2,4,65,1,0,1.4417,0
100,2,7,25,0.068,0,2.0402,1
101,1,21,25,1,1,1.7116,1
102,2,21,35,1,0,26.9185,1
103,2,7,75,0.5,1,0.58217,1
104,1,18,18,0.068,1,0.82641,1
105,2,7,65,0.068,1,0.94272,1
106,2,4,65,0.068,0,0.47084,0
107,2,10,90,0.068,1,0.65943,1
108,2,7,90,0.5,0,1.4094,0
109,1,10,35,1,1,0.68452,0
110,2,21,25,0.5,0,1.1219,1
111,2,18,35,0.068,0,0.79682,1
112,2,4,35,0.068,0,0.90728,1
113,1,15,90,0.5,1,0.0025884,1
114,1,15,90,1,1,1.1138,1
115,1,10,65,1,0,1.9443,1
116,1,4,65,1,0,0.78587,1
117,2,4,25,1,0,3.811,1
118,2,4,65,0.068,0,3.8606,0
119,2,4,18,0.068,0,0.62632,1
120,2,21,18,0.068,1,1.0624,0
121,1,7,25,0.068,0,0.80154,1
122,1,21,35,1,1,0.59382,1
123,2,7,25,0.5,0,0.9165,1
124,1,7,75,0.5,1,1.2528,0
125,1,7,65,0.068,1,1.9717,0
126,1,4,65,0.068,0,0.73483,1
127,2,18,75,0.068,1,1.2985,1
128,1,10,90,0.068,0,2.2895,1
129,1,7,90,0.5,0,1.2096,1
130,1,21,25,0.5,1,0.89988,1
131,1,18,35,0.068,1,0.90031,1
132,1,4,35,0.068,0,0.88878,1
133,2,15,75,1,1,0.35361,1
134,1,4,25,1,0,0.70551,1
135,1,4,65,0.068,1,0.77455,0
136,1,4,18,0.068,1,0.69825,0
137,2,4,35,0.5,0,1.662,1
138,2,10,90,1,1,1.0993,1
139,2,18,35,0.5,0,2.1167,1
140,1,21,18,0.068,1,0.88002,1
141,2,7,75,0.068,1,1.4954,1
142,1,7,25,0.5,0,0.7251,1
143,2,21,18,0.068,0,1.9031,1
144,1,18,75,0.068,0,1.0271,0
145,1,15,75,1,0,1.4672,0
146,2,18,18,0.5,0,1.8087,1
147,2,7,65,0.068,0,2.8726,0
148,1,4,35,0.5,0,1.5323,1
149,1,10,90,1,1,27.1937,0
150,2,7,65,0.5,1,1.1368,1
151,1,18,35,0.5,1,2.3802,1
152,1,7,75,0.068,0,2.4928,1
153,1,21,18,0.068,0,2.3155,0
154,2,4,25,0.068,0,3.5579,1
155,1,18,18,0.5,1,1.874,1
156,1,7,65,0.068,0,1.6884,1
157,1,7,65,0.5,1,3.1606,0
158,1,4,25,0.068,1,1.8932,0
159,1,4,18,0.5,0,0.65538,1
160,2,4,18,0.5,0,3.4924,1
161,1,15,25,1,1,1.6809,1
162,2,15,25,1,1,3.2339,0
163,1,7,75,1,1,2.8494,0
164,2,7,75,1,1,0.70376,1
165,2,7,18,0.5,0,1.8932,1
166,2,10,35,0.5,1,1.7654,0
167,2,4,90,0.5,1,1.3786,1
168,1,7,18,0.5,0,1.6307,1
169,2,7,25,1,1,4.9502,0
170,1,10,35,0.5,1,1.14,0
171,2,18,75,1,1,0.69358,1
172,2,18,18,1,0,0.58354,1
173,2,15,75,1,1,3.0207,1
174,1,4,90,0.5,0,1.1163,1
175,1,7,25,1,1,3.3619,0
176,2,4,65,1,1,4.6094,1
177,2,18,25,1,0,1.6965,1
178,1,18,75,1,1,1.557,1
179,1,18,18,1,1,0.76411,1
180,2,21,65,0.068,1,1.0743,1
181,2,21,35,0.5,1,0.84737,0
182,1,15,75,1,1,1.433,1
183,2,15,75,0.068,1,0.4193,1
184,2,4,25,0.5,1,0.46026,0
185,2,15,75,1,1,0.055224,1
186,2,10,35,0.5,1,0.66622,0
187,1,4,65,1,0,1.5062,1
188,1,18,25,1,1,1.3246,1
189,1,21,65,0.068,1,5.1105,1
190,1,21,35,0.5,1,1.4566,1
191,1,15,75,0.068,1,5.8482,1
192,1,4,25,0.5,0,1.2438,1
193,2,18,25,0.068,0,3.8442,1
194,2,18,18,1,0,1.338,1
195,1,15,75,1,1,0.73806,1
196,1,10,35,0.5,1,1.0479,0
197,1,18,25,0.068,1,4.4809,1
198,2,10,75,0.068,1,0.56633,1
199,2,21,25,0.5,1,6.0421,0
200,2,21,18,1,0,1.3467,1
201,2,10,35,1,1,0.91378,0
202,2,21,35,0.068,1,3.3788,0
203,1,18,18,1,1,0.40861,1
204,1,10,75,0.068,1,4.1264,0
205,1,21,25,0.5,1,0.46987,1
206,2,18,18,0.068,1,0.89123,0
207,1,21,18,1,1,1.1336,1
208,1,10,35,1,0,0.58828,1
209,1,21,35,0.068,0,0.85761,0
210,2,10,35,0.068,0,0.77729,1
211,1,18,18,0.068,1,0.86711,1
212,2,10,65,0.068,1,0.81478,1
213,1,10,35,0.068,0,0.85785,1
214,2,10,35,0.068,1,0.89538,0
215,1,10,65,0.068,1,0.68772,0
216,1,10,35,0.068,1,1.2196,0
