Trial Number,TrialTypeN1S2,Nvalue,Svalue,time,KeyPressZsmallMgreater,ReactionTime,Accuracy
1,2,4,35,0.5,0,20.3725,1
2,1,4,35,0.5,1,7.5926,0
3,2,18,90,1,1,44.6935,1
4,2,4,75,0.5,0,39.1296,0
5,1,18,90,1,1,33.333,1
6,2,10,18,0.5,0,36.4303,1
7,2,15,35,0.068,1,37.5094,0
8,1,4,75,0.5,0,9.6519,1
9,1,10,18,0.5,1,26.2896,0
10,1,15,35,0.068,1,93.4837,1
11,2,15,65,0.5,1,85.2732,1
12,1,15,65,0.5,1,32.2627,1
13,1,7,75,0.5,0,24.683,1
14,2,7,75,0.5,1,86.6234,1
15,2,18,90,0.068,1,27.393,1
16,1,18,90,0.068,1,21.4368,1
17,2,4,75,1,0,8.6614,0
18,1,4,75,1,1,24.7587,0
19,1,15,65,0.068,1,14.738,1
20,1,15,35,1,1,56.0874,1
21,2,15,65,0.068,1,37.4849,1
22,2,15,35,1,0,26.6182,1
23,1,18,18,1,1,28.6148,1
24,1,21,18,0.068,0,31.2725,0
25,1,10,25,0.5,0,17.2318,1
26,1,7,25,0.5,0,25.7472,1
27,2,18,18,1,1,8.6776,0
28,2,21,18,0.068,1,62.0463,0
29,2,10,25,0.5,0,246.9063,1
30,2,7,25,0.5,0,10.9893,1
31,1,15,65,1,1,33.8238,1
32,2,15,65,1,0,61.6986,0
33,1,10,25,0.068,0,31.8776,1
34,1,10,25,1,0,22.8121,1
35,2,10,25,0.068,1,42.851,0
36,1,10,90,0.5,1,24.4772,0
37,1,7,75,0.068,0,27.6679,1
38,2,10,25,1,0,13.1911,1
39,2,10,90,0.5,1,5.3474,1
40,2,7,75,0.068,0,18.1661,0
41,2,21,35,0.068,1,27.9913,0
42,1,21,35,0.068,0,56.5588,0
43,1,7,65,0.068,0,6.8436,1
44,2,7,65,0.068,1,20.7949,1
45,2,21,90,0.068,1,7.7666,1
46,2,18,18,0.5,0,25.7376,1
47,2,18,90,0.5,1,12.4964,1
48,1,21,90,0.068,0,33.6223,0
49,1,18,18,0.5,0,26.127,0
50,2,15,75,0.068,1,5.4486,1
51,1,18,90,0.5,1,26.2619,1
52,1,15,75,0.068,1,20.5911,1
53,1,7,18,0.5,0,10.8297,1
54,1,18,90,1,1,8.9871,1
55,2,7,18,0.5,1,16.5825,0
56,2,18,90,1,1,6.7733,1
57,2,21,18,0.5,0,6.3165,1
58,1,21,18,0.5,1,117.9745,1
59,1,4,18,0.068,0,11.1247,1
60,2,4,18,0.068,0,19.2135,1
61,1,10,65,0.068,1,11.9473,0
62,1,21,35,1,1,20.3395,1
63,1,7,90,1,0,4.4759,1
64,2,10,65,0.068,1,27.7926,1
65,2,21,35,1,1,15.1391,0
66,1,15,25,0.5,1,57.6417,1
67,1,4,18,0.5,0,6.0719,1
68,2,7,90,1,1,6.0776,1
69,1,21,18,0.5,1,5.5139,1
70,1,4,75,0.068,0,8.1563,1
71,1,7,90,0.5,1,20.723,0
72,1,18,65,0.068,1,5.7578,1
73,2,15,25,0.5,0,4.6229,1
74,2,4,18,0.5,0,7.6683,1
75,2,21,18,0.5,1,5.9395,0
76,1,18,25,0.5,0,24.1661,0
77,2,4,75,0.068,0,34.3837,0
78,2,7,90,0.5,1,5.0193,1
79,2,18,65,0.068,1,6.7409,1
80,2,18,25,0.5,0,5.0371,1
81,2,21,35,0.5,1,28.8289,0
82,1,21,35,0.5,1,45.9577,1
83,1,7,90,0.068,0,5.4679,1
84,2,7,90,0.068,1,10.0489,1
85,2,7,25,0.068,0,4.4446,1
86,1,7,25,0.068,0,52.2567,1
87,1,10,65,1,1,22.8219,0
88,2,10,65,1,1,3.6257,1
89,2,4,75,0.5,0,10.3581,0
90,1,4,75,0.5,1,17.4153,0
91,1,10,25,0.068,1,7.2685,0
92,2,10,25,0.068,0,9.1877,1
93,1,15,75,1,1,25.4859,1
94,1,7,18,0.068,0,6.6349,1
95,1,7,75,1,0,6.8107,1
96,2,15,75,1,1,3.8457,1
97,1,21,35,0.5,1,4.0036,1
98,2,7,18,0.068,0,4.9089,1
99,1,4,75,1,0,3.5181,1
100,1,15,75,0.5,1,2.315,1
101,2,7,75,1,0,4.2285,0
102,2,21,35,0.5,1,3.2011,0
103,1,4,65,0.068,0,3.9433,1
104,2,4,75,1,1,66.8653,1
105,2,15,75,0.5,1,4.5833,1
106,1,4,35,0.068,0,3.2324,1
107,2,4,65,0.068,1,19.0504,1
108,2,4,35,0.068,0,3.3012,1
109,2,10,65,0.068,1,3.6267,1
110,1,10,65,0.068,1,5.4356,0
111,1,18,25,1,1,6.5634,1
112,2,18,25,1,0,2.4932,1
113,2,15,35,0.068,0,78.6091,1
114,2,18,90,0.068,1,4.7131,1
115,2,15,35,0.5,0,3.9884,1
116,1,15,35,0.068,1,26.3503,1
117,1,18,90,0.068,1,40.255,1
118,1,15,35,0.5,0,14.4274,0
119,1,18,65,0.5,1,28.7785,1
120,2,18,65,0.5,1,6.1516,1
121,2,4,75,0.068,0,3.4742,0
122,1,4,75,0.068,0,4.6166,1
123,2,15,75,0.5,1,4.1376,1
124,2,21,25,0.068,0,23.8886,1
125,1,15,75,0.5,0,22.3985,0
126,2,4,35,0.5,0,3.7899,1
127,2,7,65,0.5,1,3.0351,1
128,2,7,75,0.068,1,4.5329,1
129,2,21,25,1,0,7.9629,1
130,2,15,75,0.068,1,2.3434,1
131,2,4,65,1,0,1.3254,0
132,2,15,25,0.068,1,1.9683,0
133,1,21,25,0.068,1,70.5016,1
134,1,4,35,0.5,0,1.3346,1
135,2,15,35,1,1,1.2536,0
136,2,15,75,1,1,1.1086,1
137,1,7,65,0.5,0,1.1401,1
138,1,7,75,0.068,1,1.0641,0
139,2,4,18,1,0,1.2541,1
140,1,21,25,1,1,0.73986,1
141,2,21,18,0.068,0,3.5458,1
142,1,15,75,0.068,0,2.5207,0
143,1,4,65,1,0,1.3921,1
144,1,15,25,0.068,1,1.0385,1
145,2,10,18,1,0,2.0036,1
146,2,7,75,1,1,1.0602,1
147,1,15,35,1,1,1.1598,1
148,1,15,75,1,1,0.94428,1
149,2,18,90,0.5,1,2.0465,1
150,2,10,65,0.5,0,1.668,0
151,1,4,18,1,0,1.0718,1
152,1,21,18,0.068,1,1.0308,1
153,2,10,25,1,0,1.2852,1
154,1,10,18,1,0,2.2754,1
155,1,7,75,1,0,1.299,1
156,1,18,90,0.5,1,0.74423,1
157,2,7,75,0.5,0,1.6197,0
158,2,15,35,0.5,1,1.4207,0
159,1,10,65,0.5,0,2.084,1
160,2,18,25,0.068,0,2.3206,1
161,1,10,25,1,1,0.87124,0
162,2,21,90,0.5,1,0.52259,1
163,2,4,35,1,0,0.90893,1
164,1,7,75,0.5,1,1.0077,0
165,1,15,35,0.5,0,1.1543,0
166,1,18,25,0.068,1,4.5924,1
167,2,10,90,1,1,0.9251,1
168,1,21,90,0.5,1,1.0924,1
169,1,4,35,1,0,0.88821,1
170,1,10,90,1,1,0.9936,0
171,1,21,35,0.068,1,1.0153,1
172,1,7,25,1,0,1.1773,1
173,1,4,65,0.5,0,1.1538,1
174,2,21,35,0.068,1,1.3675,0
175,1,4,35,0.068,0,1.3526,1
176,2,7,25,1,0,1.8104,1
177,1,21,90,1,1,1.1505,1
178,2,4,65,0.5,0,5.0341,0
179,2,4,35,0.068,0,2.3756,1
180,1,18,90,1,1,0.99976,1
181,2,21,90,1,1,0.95816,1
182,2,18,90,1,1,0.9961,1
183,2,15,25,1,0,0.49376,1
184,2,10,65,1,1,0.91578,1
185,1,15,25,1,1,1.2325,1
186,1,10,65,1,0,0.44481,1
187,1,18,65,1,1,0.78973,1
188,1,21,25,0.5,1,0.91934,1
189,2,18,65,1,0,1.38,0
190,2,21,25,0.5,0,0.89822,1
191,2,7,18,1,0,1.5253,1
192,2,21,18,1,1,1.1879,0
193,1,7,18,1,0,1.1812,1
194,2,7,65,1,1,0.93876,1
195,2,10,25,0.5,0,1.2629,1
196,1,21,18,1,1,0.76511,1
197,1,7,65,1,0,1.1869,1
198,2,21,18,1,0,2.263,1
199,2,21,35,1,1,0.73711,0
200,1,10,25,0.5,0,1.1156,1
201,2,10,65,0.5,1,0.7305,1
202,1,21,18,1,1,0.71587,1
203,1,21,35,1,1,0.7442,1
204,2,10,90,0.068,1,1.2313,1
205,2,18,18,0.068,0,1.6843,1
206,1,10,65,0.5,0,1.6704,1
207,1,10,90,0.068,0,1.135,1
208,2,4,35,1,0,1.0231,1
209,2,18,90,0.5,1,0.5112,1
210,1,18,18,0.068,1,1.0306,1
211,1,4,35,1,0,0.74744,1
212,1,18,90,0.5,1,1.3137,1
213,1,10,18,0.068,1,0.84189,0
214,1,18,90,0.068,1,0.8349,1
215,2,10,18,0.068,0,1.3865,1
216,2,18,90,0.068,1,0.79808,1
